Number,acc_sum,block,block_c,block_cond,con_img,correct,correct_response,datetime,endtime,jitter,project,response,response_time,row_sel,session_number,start_end,starttime,subject_id,task,task_vers,trial
9,0,prac,1,A,circle.png,0,m,Wed Sep 04 2024 13:47:02 GMT-0500 (Central Daylight Time),86639.90000009537,1500,O,None,1502,8,1,3777.0,82862.90000009537,7004,NTS,A,1
8,1,prac,1,A,circle.png,1,m,Wed Sep 04 2024 13:47:02 GMT-0500 (Central Daylight Time),89646.20000004768,1600,O,m,621,7,1,2997.100000023842,86649.10000002384,7004,NTS,A,2
9,2,prac,1,A,circle.png,1,m,Wed Sep 04 2024 13:47:02 GMT-0500 (Central Daylight Time),92585.0,1500,O,m,652,8,1,2927.6999999284744,89657.30000007153,7004,NTS,A,3
7,3,prac,1,A,circle.png,1,m,Wed Sep 04 2024 13:47:02 GMT-0500 (Central Daylight Time),95673.90000009537,1700,O,m,609,6,1,3076.100000023842,92597.80000007153,7004,NTS,A,4
2,4,prac,1,A,circle.png,1,z,Wed Sep 04 2024 13:47:02 GMT-0500 (Central Daylight Time),98963.90000009537,2000,O,z,504,2,1,3282.0,95681.90000009537,7004,NTS,A,5
2,5,prac,1,A,circle.png,1,z,Wed Sep 04 2024 13:47:02 GMT-0500 (Central Daylight Time),102303.90000009537,2000,O,z,562,2,1,3331.5,98972.40000009537,7004,NTS,A,6
7,6,prac,1,A,circle.png,1,m,Wed Sep 04 2024 13:47:02 GMT-0500 (Central Daylight Time),105393.30000007153,1700,O,m,586,6,1,3073.5,102319.80000007153,7004,NTS,A,7
1,7,prac,1,A,circle.png,1,z,Wed Sep 04 2024 13:47:02 GMT-0500 (Central Daylight Time),107747.30000007153,1000,O,z,558,1,1,2337.2000000476837,105410.10000002384,7004,NTS,A,8
8,8,prac,1,A,circle.png,1,m,Wed Sep 04 2024 13:47:02 GMT-0500 (Central Daylight Time),110687.0,1600,O,m,562,7,1,2924.7999999523163,107762.20000004768,7004,NTS,A,9
6,9,prac,1,A,circle.png,1,m,Wed Sep 04 2024 13:47:02 GMT-0500 (Central Daylight Time),113942.80000007153,1900,O,m,579,5,1,3247.899999976158,110694.90000009537,7004,NTS,A,10
3,10,prac,1,A,circle.png,1,z,Wed Sep 04 2024 13:47:02 GMT-0500 (Central Daylight Time),116515.20000004768,1200,O,z,600,3,1,2555.899999976158,113959.30000007153,7004,NTS,A,11
4,11,prac,1,A,circle.png,1,z,Wed Sep 04 2024 13:47:02 GMT-0500 (Central Daylight Time),119337.20000004768,1400,O,z,643,4,1,2809.0,116528.20000004768,7004,NTS,A,12
2,0,prac,1,B,triangle.png,0,m,Wed Sep 04 2024 13:47:02 GMT-0500 (Central Daylight Time),153336.5,1700,O,z,1262,2,1,3732.2999999523163,149604.20000004768,7004,NTS,A,1
3,0,prac,1,B,triangle.png,0,z,Wed Sep 04 2024 13:47:02 GMT-0500 (Central Daylight Time),157227.0,1600,O,None,1504,3,1,3875.7999999523163,153351.20000004768,7004,NTS,A,2
1,1,prac,1,B,triangle.png,1,z,Wed Sep 04 2024 13:47:02 GMT-0500 (Central Daylight Time),160701.0,1900,O,z,789,1,1,3459.7999999523163,157241.20000004768,7004,NTS,A,3
6,2,prac,1,B,triangle.png,1,m,Wed Sep 04 2024 13:47:02 GMT-0500 (Central Daylight Time),163339.5,1000,O,m,867,5,1,2628.899999976158,160710.60000002384,7004,NTS,A,4
7,3,prac,1,B,triangle.png,1,z,Wed Sep 04 2024 13:47:02 GMT-0500 (Central Daylight Time),167330.30000007153,2000,O,z,1210,6,1,3978.100000023842,163352.20000004768,7004,NTS,A,5
2,4,prac,1,B,triangle.png,1,m,Wed Sep 04 2024 13:47:02 GMT-0500 (Central Daylight Time),170953.40000009537,1700,O,m,1136,2,1,3609.9000000953674,167343.5,7004,NTS,A,6
1,5,prac,1,B,triangle.png,1,z,Wed Sep 04 2024 13:47:02 GMT-0500 (Central Daylight Time),174610.70000004768,1900,O,z,984,1,1,3646.399999976158,170964.30000007153,7004,NTS,A,7
7,6,prac,1,B,triangle.png,1,z,Wed Sep 04 2024 13:47:02 GMT-0500 (Central Daylight Time),178318.80000007153,2000,O,z,924,6,1,3695.0,174623.80000007153,7004,NTS,A,8
9,7,prac,1,B,triangle.png,1,z,Wed Sep 04 2024 13:47:02 GMT-0500 (Central Daylight Time),181340.70000004768,1400,O,z,848,8,1,3009.5,178331.20000004768,7004,NTS,A,9
9,8,prac,1,B,triangle.png,1,z,Wed Sep 04 2024 13:47:02 GMT-0500 (Central Daylight Time),184129.10000002384,1400,O,z,601,8,1,2778.399999976158,181350.70000004768,7004,NTS,A,10
8,9,prac,1,B,triangle.png,1,m,Wed Sep 04 2024 13:47:02 GMT-0500 (Central Daylight Time),186817.90000009537,1200,O,m,709,7,1,2676.2000000476837,184141.70000004768,7004,NTS,A,11
4,9,prac,1,B,triangle.png,0,m,Wed Sep 04 2024 13:47:02 GMT-0500 (Central Daylight Time),189723.70000004768,1500,O,z,633,4,1,2890.600000023842,186833.10000002384,7004,NTS,A,12
8,1,test,1,A,circle.png,1,m,Wed Sep 04 2024 13:47:02 GMT-0500 (Central Daylight Time),216442.5,1600,O,m,734,7,1,2362.5999999046326,214079.90000009537,7004,NTS,A,1
1,2,test,1,A,circle.png,1,z,Wed Sep 04 2024 13:47:02 GMT-0500 (Central Daylight Time),218062.5,1000,O,z,596,1,1,1612.5999999046326,216449.90000009537,7004,NTS,A,2
8,3,test,1,A,circle.png,1,m,Wed Sep 04 2024 13:47:02 GMT-0500 (Central Daylight Time),220249.20000004768,1600,O,m,560,7,1,2180.7999999523163,218068.40000009537,7004,NTS,A,3
2,4,test,1,A,circle.png,1,z,Wed Sep 04 2024 13:47:02 GMT-0500 (Central Daylight Time),222955.40000009537,2000,O,z,682,2,1,2697.100000023842,220258.30000007153,7004,NTS,A,4
9,5,test,1,A,circle.png,1,m,Wed Sep 04 2024 13:47:02 GMT-0500 (Central Daylight Time),225342.40000009537,1500,O,m,854,8,1,2378.7000000476837,222963.70000004768,7004,NTS,A,5
3,6,test,1,A,circle.png,1,z,Wed Sep 04 2024 13:47:02 GMT-0500 (Central Daylight Time),227112.5,1200,O,z,543,3,1,1762.3999999761581,225350.10000002384,7004,NTS,A,6
7,7,test,1,A,circle.png,1,m,Wed Sep 04 2024 13:47:02 GMT-0500 (Central Daylight Time),229684.5,1700,O,m,847,6,1,2564.1999999284744,227120.30000007153,7004,NTS,A,7
6,8,test,1,A,circle.png,1,m,Wed Sep 04 2024 13:47:02 GMT-0500 (Central Daylight Time),232407.0,1900,O,m,789,5,1,2714.0,229693.0,7004,NTS,A,8
2,9,test,1,A,circle.png,1,z,Wed Sep 04 2024 13:47:02 GMT-0500 (Central Daylight Time),235044.90000009537,2000,O,z,613,2,1,2628.5,232416.40000009537,7004,NTS,A,9
4,10,test,1,A,circle.png,1,z,Wed Sep 04 2024 13:47:02 GMT-0500 (Central Daylight Time),237199.30000007153,1400,O,z,721,4,1,2148.100000023842,235051.20000004768,7004,NTS,A,10
7,11,test,1,A,circle.png,1,m,Wed Sep 04 2024 13:47:02 GMT-0500 (Central Daylight Time),239454.40000009537,1700,O,m,530,6,1,2245.3000000715256,237209.10000002384,7004,NTS,A,11
6,12,test,1,A,circle.png,1,m,Wed Sep 04 2024 13:47:02 GMT-0500 (Central Daylight Time),241791.90000009537,1900,O,m,411,5,1,2329.8000000715256,239462.10000002384,7004,NTS,A,12
3,13,test,1,A,circle.png,1,z,Wed Sep 04 2024 13:47:02 GMT-0500 (Central Daylight Time),243629.60000002384,1200,O,z,616,3,1,1828.2999999523163,241801.30000007153,7004,NTS,A,13
8,14,test,1,A,circle.png,1,m,Wed Sep 04 2024 13:47:02 GMT-0500 (Central Daylight Time),245733.40000009537,1600,O,m,480,7,1,2096.8000000715256,243636.60000002384,7004,NTS,A,14
9,15,test,1,A,circle.png,1,m,Wed Sep 04 2024 13:47:02 GMT-0500 (Central Daylight Time),247802.40000009537,1500,O,m,539,8,1,2059.7000000476837,245742.70000004768,7004,NTS,A,15
3,16,test,1,A,circle.png,1,z,Wed Sep 04 2024 13:47:02 GMT-0500 (Central Daylight Time),249623.20000004768,1200,O,z,589,3,1,1818.1000000238419,247805.10000002384,7004,NTS,A,16
9,17,test,1,A,circle.png,1,m,Wed Sep 04 2024 13:47:02 GMT-0500 (Central Daylight Time),251593.70000004768,1500,O,m,444,8,1,1962.5,249631.20000004768,7004,NTS,A,17
7,18,test,1,A,circle.png,1,m,Wed Sep 04 2024 13:47:02 GMT-0500 (Central Daylight Time),253847.80000007153,1700,O,m,520,6,1,2246.3000000715256,251601.5,7004,NTS,A,18
8,19,test,1,A,circle.png,1,m,Wed Sep 04 2024 13:47:02 GMT-0500 (Central Daylight Time),256035.5,1600,O,m,558,7,1,2184.399999976158,253851.10000002384,7004,NTS,A,19
4,20,test,1,A,circle.png,1,z,Wed Sep 04 2024 13:47:02 GMT-0500 (Central Daylight Time),257972.10000002384,1400,O,z,515,4,1,1932.8999999761581,256039.20000004768,7004,NTS,A,20
1,21,test,1,A,circle.png,1,z,Wed Sep 04 2024 13:47:02 GMT-0500 (Central Daylight Time),259558.70000004768,1000,O,z,562,1,1,1584.1000000238419,257974.60000002384,7004,NTS,A,21
3,22,test,1,A,circle.png,1,z,Wed Sep 04 2024 13:47:02 GMT-0500 (Central Daylight Time),261228.5,1200,O,z,448,3,1,1666.6999999284744,259561.80000007153,7004,NTS,A,22
4,23,test,1,A,circle.png,1,z,Wed Sep 04 2024 13:47:02 GMT-0500 (Central Daylight Time),263215.90000009537,1400,O,z,578,4,1,1984.8000000715256,261231.10000002384,7004,NTS,A,23
1,24,test,1,A,circle.png,1,z,Wed Sep 04 2024 13:47:02 GMT-0500 (Central Daylight Time),264785.7000000477,1000,O,z,551,1,1,1562.7000000476837,263223.0,7004,NTS,A,24
2,0,test,1,B,triangle.png,0,m,Wed Sep 04 2024 13:47:02 GMT-0500 (Central Daylight Time),280667.60000002384,1200,O,None,1502,10,1,2715.399999976158,277952.2000000477,7004,NTS,A,1
8,1,test,1,B,triangle.png,1,m,Wed Sep 04 2024 13:47:02 GMT-0500 (Central Daylight Time),283405.60000002384,1700,O,m,1007,15,1,2729.899999976158,280675.7000000477,7004,NTS,A,2
2,2,test,1,B,triangle.png,1,m,Wed Sep 04 2024 13:47:02 GMT-0500 (Central Daylight Time),286228.5,1700,O,m,1102,2,1,2815.2999999523163,283413.2000000477,7004,NTS,A,3
7,3,test,1,B,triangle.png,1,z,Wed Sep 04 2024 13:47:02 GMT-0500 (Central Daylight Time),289067.2000000477,2000,O,z,809,6,1,2830.0,286237.2000000477,7004,NTS,A,4
2,4,test,1,B,triangle.png,1,m,Wed Sep 04 2024 13:47:02 GMT-0500 (Central Daylight Time),291706.40000009537,1700,O,m,903,2,1,2629.4000000953674,289077.0,7004,NTS,A,5
3,5,test,1,B,triangle.png,1,z,Wed Sep 04 2024 13:47:02 GMT-0500 (Central Daylight Time),294393.7000000477,2000,O,z,660,11,1,2679.399999976158,291714.3000000715,7004,NTS,A,6
9,6,test,1,B,triangle.png,1,z,Wed Sep 04 2024 13:47:02 GMT-0500 (Central Daylight Time),296848.8000000715,1400,O,z,1029,8,1,2448.2000000476837,294400.60000002384,7004,NTS,A,7
4,7,test,1,B,triangle.png,1,m,Wed Sep 04 2024 13:47:02 GMT-0500 (Central Daylight Time),299053.2000000477,1500,O,m,675,4,1,2196.5,296856.7000000477,7004,NTS,A,8
8,8,test,1,B,triangle.png,1,m,Wed Sep 04 2024 13:47:02 GMT-0500 (Central Daylight Time),301474.5,1700,O,m,693,15,1,2412.899999976158,299061.60000002384,7004,NTS,A,9
1,9,test,1,B,triangle.png,1,z,Wed Sep 04 2024 13:47:02 GMT-0500 (Central Daylight Time),303595.2000000477,1400,O,z,692,9,1,2109.899999976158,301485.3000000715,7004,NTS,A,10
8,10,test,1,B,triangle.png,1,m,Wed Sep 04 2024 13:47:02 GMT-0500 (Central Daylight Time),305498.8000000715,1200,O,m,668,7,1,1894.2000000476837,303604.60000002384,7004,NTS,A,11
8,11,test,1,B,triangle.png,1,m,Wed Sep 04 2024 13:47:02 GMT-0500 (Central Daylight Time),307268.7000000477,1200,O,m,548,7,1,1762.2999999523163,305506.40000009537,7004,NTS,A,12
1,12,test,1,B,triangle.png,1,z,Wed Sep 04 2024 13:47:02 GMT-0500 (Central Daylight Time),309790.2000000477,1900,O,z,598,1,1,2513.2999999523163,307276.90000009537,7004,NTS,A,13
6,13,test,1,B,triangle.png,1,m,Wed Sep 04 2024 13:47:02 GMT-0500 (Central Daylight Time),311927.5,1500,O,m,612,13,1,2129.5,309798.0,7004,NTS,A,14
6,14,test,1,B,triangle.png,1,m,Wed Sep 04 2024 13:47:02 GMT-0500 (Central Daylight Time),313363.5,1000,O,m,415,5,1,1427.1999999284744,311936.3000000715,7004,NTS,A,15
6,15,test,1,B,triangle.png,1,m,Wed Sep 04 2024 13:47:02 GMT-0500 (Central Daylight Time),315300.60000002384,1500,O,m,430,13,1,1934.6999999284744,313365.90000009537,7004,NTS,A,16
9,16,test,1,B,triangle.png,1,z,Wed Sep 04 2024 13:47:02 GMT-0500 (Central Daylight Time),317856.60000002384,1900,O,z,645,16,1,2553.6999999284744,315302.90000009537,7004,NTS,A,17
2,17,test,1,B,triangle.png,1,m,Wed Sep 04 2024 13:47:02 GMT-0500 (Central Daylight Time),319826.5,1200,O,m,743,10,1,1962.1999999284744,317864.3000000715,7004,NTS,A,18
4,18,test,1,B,triangle.png,1,m,Wed Sep 04 2024 13:47:02 GMT-0500 (Central Daylight Time),321713.7000000477,1000,O,m,863,12,1,1879.6000000238419,319834.10000002384,7004,NTS,A,19
7,19,test,1,B,triangle.png,1,z,Wed Sep 04 2024 13:47:02 GMT-0500 (Central Daylight Time),324118.5,1600,O,z,781,14,1,2399.5999999046326,321718.90000009537,7004,NTS,A,20
4,20,test,1,B,triangle.png,1,m,Wed Sep 04 2024 13:47:02 GMT-0500 (Central Daylight Time),326472.7000000477,1500,O,m,821,4,1,2346.2999999523163,324126.40000009537,7004,NTS,A,21
1,21,test,1,B,triangle.png,1,z,Wed Sep 04 2024 13:47:02 GMT-0500 (Central Daylight Time),329095.3000000715,1900,O,z,696,1,1,2614.399999976158,326480.90000009537,7004,NTS,A,22
3,22,test,1,B,triangle.png,1,z,Wed Sep 04 2024 13:47:02 GMT-0500 (Central Daylight Time),331449.8000000715,1600,O,z,718,3,1,2346.5,329103.3000000715,7004,NTS,A,23
6,23,test,1,B,triangle.png,1,m,Wed Sep 04 2024 13:47:02 GMT-0500 (Central Daylight Time),333070.5,1000,O,m,599,5,1,1612.3999999761581,331458.10000002384,7004,NTS,A,24
9,0,prac,1,C,circle.png,0,m,Wed Sep 04 2024 13:47:02 GMT-0500 (Central Daylight Time),416498.2000000477,1900,O,None,1501,8,1,4157.299999952316,412340.90000009537,7004,NTS,A,1
3,0,prac,1,C,triangle.png,0,z,Wed Sep 04 2024 13:47:02 GMT-0500 (Central Daylight Time),420272.40000009537,1500,O,None,1502,3,1,3762.4000000953674,416510.0,7004,NTS,A,2
9,1,prac,1,C,circle.png,1,m,Wed Sep 04 2024 13:47:02 GMT-0500 (Central Daylight Time),424079.8000000715,1900,O,m,1117,8,1,3797.0,420282.8000000715,7004,NTS,A,3
4,2,prac,1,C,circle.png,1,z,Wed Sep 04 2024 13:47:02 GMT-0500 (Central Daylight Time),427119.0,1000,O,z,1264,4,1,3029.7999999523163,424089.2000000477,7004,NTS,A,4
6,2,prac,1,C,circle.png,0,m,Wed Sep 04 2024 13:47:02 GMT-0500 (Central Daylight Time),431393.8000000715,2000,O,None,1502,5,1,4262.200000047684,427131.60000002384,7004,NTS,A,5
2,2,prac,1,C,triangle.png,0,m,Wed Sep 04 2024 13:47:02 GMT-0500 (Central Daylight Time),435284.7000000477,1600,O,None,1503,2,1,3877.399999976158,431407.3000000715,7004,NTS,A,6
4,2,prac,1,C,circle.png,0,z,Wed Sep 04 2024 13:47:02 GMT-0500 (Central Daylight Time),438558.3000000715,1000,O,None,1502,4,1,3265.100000023842,435293.2000000477,7004,NTS,A,7
7,3,prac,1,C,triangle.png,1,z,Wed Sep 04 2024 13:47:02 GMT-0500 (Central Daylight Time),441580.3000000715,1200,O,z,1041,6,1,3007.899999976158,438572.40000009537,7004,NTS,A,8
1,4,prac,1,C,circle.png,1,z,Wed Sep 04 2024 13:47:02 GMT-0500 (Central Daylight Time),445254.8000000715,1700,O,z,1198,1,1,3659.3000000715256,441595.5,7004,NTS,A,9
6,5,prac,1,C,circle.png,1,m,Wed Sep 04 2024 13:47:02 GMT-0500 (Central Daylight Time),448911.5,2000,O,m,880,5,1,3645.5,445266.0,7004,NTS,A,10
3,6,prac,1,C,triangle.png,1,z,Wed Sep 04 2024 13:47:02 GMT-0500 (Central Daylight Time),452200.7000000477,1500,O,z,1011,3,1,3281.2999999523163,448919.40000009537,7004,NTS,A,11
8,6,prac,1,C,triangle.png,0,m,Wed Sep 04 2024 13:47:02 GMT-0500 (Central Daylight Time),455707.90000009537,1400,O,z,1334,7,1,3494.8000000715256,452213.10000002384,7004,NTS,A,12
4,0,prac,2,C,circle.png,0,z,Wed Sep 04 2024 13:47:02 GMT-0500 (Central Daylight Time),473041.60000002384,1000,O,None,1502,4,1,3268.399999976158,469773.2000000477,7004,NTS,A,1
2,0,prac,2,C,triangle.png,0,m,Wed Sep 04 2024 13:47:02 GMT-0500 (Central Daylight Time),476915.3000000715,1600,O,None,1502,2,1,3865.0,473050.3000000715,7004,NTS,A,2
2,0,prac,2,C,triangle.png,0,m,Wed Sep 04 2024 13:47:02 GMT-0500 (Central Daylight Time),480205.7000000477,1600,O,z,914,2,1,3282.5,476923.2000000477,7004,NTS,A,3
7,0,prac,2,C,triangle.png,0,z,Wed Sep 04 2024 13:47:02 GMT-0500 (Central Daylight Time),483562.0,1200,O,m,1370,6,1,3342.7999999523163,480219.2000000477,7004,NTS,A,4
9,1,prac,2,C,circle.png,1,m,Wed Sep 04 2024 13:47:02 GMT-0500 (Central Daylight Time),487587.0,1900,O,m,1343,8,1,4008.6999999284744,483578.3000000715,7004,NTS,A,5
3,2,prac,2,C,triangle.png,1,z,Wed Sep 04 2024 13:47:02 GMT-0500 (Central Daylight Time),490859.3000000715,1500,O,z,993,3,1,3258.100000023842,487601.2000000477,7004,NTS,A,6
4,2,prac,2,C,circle.png,0,z,Wed Sep 04 2024 13:47:02 GMT-0500 (Central Daylight Time),493865.10000002384,1000,O,m,1212,4,1,2989.600000023842,490875.5,7004,NTS,A,7
1,2,prac,2,C,circle.png,0,z,Wed Sep 04 2024 13:47:02 GMT-0500 (Central Daylight Time),497856.40000009537,1700,O,None,1502,1,1,3983.600000023842,493872.8000000715,7004,NTS,A,8
9,3,prac,2,C,circle.png,1,m,Wed Sep 04 2024 13:47:02 GMT-0500 (Central Daylight Time),501897.8000000715,1900,O,m,1353,8,1,4029.899999976158,497867.90000009537,7004,NTS,A,9
6,3,prac,2,C,circle.png,0,m,Wed Sep 04 2024 13:47:02 GMT-0500 (Central Daylight Time),505921.90000009537,2000,O,z,1237,5,1,4010.8000000715256,501911.10000002384,7004,NTS,A,10
1,4,prac,2,C,circle.png,1,z,Wed Sep 04 2024 13:47:02 GMT-0500 (Central Daylight Time),509696.3000000715,1700,O,z,1295,1,1,3760.8000000715256,505935.5,7004,NTS,A,11
8,5,prac,2,C,triangle.png,1,m,Wed Sep 04 2024 13:47:02 GMT-0500 (Central Daylight Time),513286.60000002384,1400,O,m,1414,7,1,3580.600000023842,509706.0,7004,NTS,A,12
9,0,test,1,C,circle.png,0,m,Wed Sep 04 2024 13:47:02 GMT-0500 (Central Daylight Time),588983.4000000954,1500,O,None,1502,24,1,3010.600000023842,585972.8000000715,7004,NTS,A,1
4,0,test,1,C,triangle.png,0,m,Wed Sep 04 2024 13:47:02 GMT-0500 (Central Daylight Time),592005.3000000715,1500,O,None,1501,12,1,3013.399999976158,588991.9000000954,7004,NTS,A,2
6,0,test,1,C,triangle.png,0,m,Wed Sep 04 2024 13:47:02 GMT-0500 (Central Daylight Time),594527.7000000477,1000,O,None,1502,13,1,2519.5,592008.2000000477,7004,NTS,A,3
9,0,test,1,C,circle.png,0,m,Wed Sep 04 2024 13:47:02 GMT-0500 (Central Daylight Time),596998.7000000477,1500,O,z,939,8,1,2464.100000023842,594534.6000000238,7004,NTS,A,4
3,0,test,1,C,circle.png,0,z,Wed Sep 04 2024 13:47:02 GMT-0500 (Central Daylight Time),600104.9000000954,1600,O,None,1502,19,1,3103.8000000715256,597001.1000000238,7004,NTS,A,5
8,1,test,1,C,triangle.png,1,m,Wed Sep 04 2024 13:47:02 GMT-0500 (Central Daylight Time),602710.2000000477,1600,O,m,972,23,1,2598.2000000476837,600112.0,7004,NTS,A,6
2,1,test,1,C,circle.png,0,z,Wed Sep 04 2024 13:47:02 GMT-0500 (Central Daylight Time),605816.0,1700,O,m,1379,18,1,3097.1999999284744,602718.8000000715,7004,NTS,A,7
7,1,test,1,C,circle.png,0,m,Wed Sep 04 2024 13:47:02 GMT-0500 (Central Daylight Time),608988.8000000715,2000,O,z,1149,14,1,3164.899999976158,605823.9000000954,7004,NTS,A,8
6,1,test,1,C,circle.png,0,m,Wed Sep 04 2024 13:47:02 GMT-0500 (Central Daylight Time),612412.2000000477,1900,O,None,1503,5,1,3416.7000000476837,608995.5,7004,NTS,A,9
1,1,test,1,C,triangle.png,0,z,Wed Sep 04 2024 13:47:02 GMT-0500 (Central Daylight Time),615517.6000000238,1900,O,m,1173,9,1,3099.2999999523163,612418.3000000715,7004,NTS,A,10
3,1,test,1,C,circle.png,0,z,Wed Sep 04 2024 13:47:02 GMT-0500 (Central Daylight Time),618624.9000000954,1600,O,None,1502,11,1,3104.3000000715256,615520.6000000238,7004,NTS,A,11
7,1,test,1,C,triangle.png,0,z,Wed Sep 04 2024 13:47:02 GMT-0500 (Central Daylight Time),621730.4000000954,1700,O,m,1370,6,1,3099.8000000715256,618630.6000000238,7004,NTS,A,12
8,1,test,1,C,circle.png,0,m,Wed Sep 04 2024 13:47:02 GMT-0500 (Central Daylight Time),624452.3000000715,1200,O,None,1502,15,1,2714.7000000476837,621737.6000000238,7004,NTS,A,13
1,2,test,1,C,triangle.png,1,z,Wed Sep 04 2024 13:47:02 GMT-0500 (Central Daylight Time),627258.4000000954,1900,O,z,884,17,1,2798.0,624460.4000000954,7004,NTS,A,14
7,2,test,1,C,triangle.png,0,z,Wed Sep 04 2024 13:47:02 GMT-0500 (Central Daylight Time),630481.3000000715,1700,O,None,1503,22,1,3214.8000000715256,627266.5,7004,NTS,A,15
4,2,test,1,C,circle.png,0,z,Wed Sep 04 2024 13:47:02 GMT-0500 (Central Daylight Time),633202.9000000954,1400,O,m,1286,4,1,2712.4000000953674,630490.5,7004,NTS,A,16
8,3,test,1,C,triangle.png,1,m,Wed Sep 04 2024 13:47:02 GMT-0500 (Central Daylight Time),636275.3000000715,1600,O,m,1451,7,1,3064.7000000476837,633210.6000000238,7004,NTS,A,17
2,3,test,1,C,triangle.png,0,m,Wed Sep 04 2024 13:47:02 GMT-0500 (Central Daylight Time),639799.4000000954,2000,O,None,1503,2,1,3518.0,636281.4000000954,7004,NTS,A,18
9,3,test,1,C,triangle.png,0,z,Wed Sep 04 2024 13:47:02 GMT-0500 (Central Daylight Time),642721.6000000238,1400,O,None,1502,16,1,2912.6999999284744,639808.9000000954,7004,NTS,A,19
1,3,test,1,C,circle.png,0,z,Wed Sep 04 2024 13:47:02 GMT-0500 (Central Daylight Time),645243.2000000477,1000,O,None,1502,1,1,2514.600000023842,642728.6000000238,7004,NTS,A,20
3,3,test,1,C,triangle.png,0,z,Wed Sep 04 2024 13:47:02 GMT-0500 (Central Daylight Time),647864.9000000954,1200,O,m,1395,3,1,2613.4000000953674,645251.5,7004,NTS,A,21
2,3,test,1,C,circle.png,0,z,Wed Sep 04 2024 13:47:02 GMT-0500 (Central Daylight Time),651088.3000000715,1700,O,None,1502,10,1,3216.0,647872.3000000715,7004,NTS,A,22
4,3,test,1,C,triangle.png,0,m,Wed Sep 04 2024 13:47:02 GMT-0500 (Central Daylight Time),654110.3000000715,1500,O,None,1502,20,1,3014.600000023842,651095.7000000477,7004,NTS,A,23
6,3,test,1,C,circle.png,0,m,Wed Sep 04 2024 13:47:02 GMT-0500 (Central Daylight Time),657533.7000000477,1900,O,None,1502,21,1,3415.5,654118.2000000477,7004,NTS,A,24
4,0,test,2,C,triangle.png,0,m,Wed Sep 04 2024 13:47:02 GMT-0500 (Central Daylight Time),696809.5,1500,O,z,993,12,1,2512.6999999284744,694296.8000000715,7004,NTS,A,1
8,1,test,2,C,circle.png,1,m,Wed Sep 04 2024 13:47:02 GMT-0500 (Central Daylight Time),699047.4000000954,1200,O,m,1013,23,1,2231.5,696815.9000000954,7004,NTS,A,2
1,1,test,2,C,triangle.png,0,z,Wed Sep 04 2024 13:47:02 GMT-0500 (Central Daylight Time),702321.4000000954,1900,O,m,1345,17,1,3264.4000000953674,699057.0,7004,NTS,A,3
9,1,test,2,C,triangle.png,0,z,Wed Sep 04 2024 13:47:02 GMT-0500 (Central Daylight Time),705243.4000000954,1400,O,None,1503,16,1,2913.8000000715256,702329.6000000238,7004,NTS,A,4
2,1,test,2,C,triangle.png,0,m,Wed Sep 04 2024 13:47:02 GMT-0500 (Central Daylight Time),708583.0,2000,O,z,1313,2,1,3332.6999999284744,705250.3000000715,7004,NTS,A,5
6,2,test,2,C,triangle.png,1,m,Wed Sep 04 2024 13:47:02 GMT-0500 (Central Daylight Time),711038.1000000238,1000,O,m,1432,21,1,2447.399999976158,708590.7000000477,7004,NTS,A,6
3,3,test,2,C,circle.png,1,z,Wed Sep 04 2024 13:47:02 GMT-0500 (Central Daylight Time),713575.8000000715,1600,O,z,913,11,1,2529.2000000476837,711046.6000000238,7004,NTS,A,7
7,3,test,2,C,circle.png,0,m,Wed Sep 04 2024 13:47:02 GMT-0500 (Central Daylight Time),717099.8000000715,2000,O,None,1502,22,1,3518.3000000715256,713581.5,7004,NTS,A,8
8,3,test,2,C,triangle.png,0,m,Wed Sep 04 2024 13:47:02 GMT-0500 (Central Daylight Time),720222.5,1600,O,None,1502,7,1,3115.2999999523163,717107.2000000477,7004,NTS,A,9
8,4,test,2,C,circle.png,1,m,Wed Sep 04 2024 13:47:02 GMT-0500 (Central Daylight Time),722243.0,1200,O,m,792,15,1,2011.0,720232.0,7004,NTS,A,10
2,5,test,2,C,circle.png,1,z,Wed Sep 04 2024 13:47:02 GMT-0500 (Central Daylight Time),724965.5,1700,O,z,1000,18,1,2715.399999976158,722250.1000000238,7004,NTS,A,11
4,6,test,2,C,triangle.png,1,m,Wed Sep 04 2024 13:47:02 GMT-0500 (Central Daylight Time),727853.4000000954,1500,O,m,1366,20,1,2880.600000023842,724972.8000000715,7004,NTS,A,12
7,7,test,2,C,circle.png,1,m,Wed Sep 04 2024 13:47:02 GMT-0500 (Central Daylight Time),731026.7000000477,2000,O,m,1151,14,1,3164.600000023842,727862.1000000238,7004,NTS,A,13
7,7,test,2,C,triangle.png,0,z,Wed Sep 04 2024 13:47:02 GMT-0500 (Central Daylight Time),734249.5,1700,O,None,1502,6,1,3212.7999999523163,731036.7000000477,7004,NTS,A,14
3,8,test,2,C,triangle.png,1,z,Wed Sep 04 2024 13:47:02 GMT-0500 (Central Daylight Time),736954.7000000477,1200,O,z,1470,3,1,2698.600000023842,734256.1000000238,7004,NTS,A,15
1,9,test,2,C,circle.png,1,z,Wed Sep 04 2024 13:47:02 GMT-0500 (Central Daylight Time),739259.0,1000,O,z,1277,1,1,2296.7999999523163,736962.2000000477,7004,NTS,A,16
1,10,test,2,C,triangle.png,1,z,Wed Sep 04 2024 13:47:02 GMT-0500 (Central Daylight Time),742465.3000000715,1900,O,z,1277,9,1,3199.3000000715256,739266.0,7004,NTS,A,17
3,11,test,2,C,circle.png,1,z,Wed Sep 04 2024 13:47:02 GMT-0500 (Central Daylight Time),745037.1000000238,1600,O,z,948,19,1,2563.5,742473.6000000238,7004,NTS,A,18
6,12,test,2,C,circle.png,1,m,Wed Sep 04 2024 13:47:02 GMT-0500 (Central Daylight Time),747975.8000000715,1900,O,m,1004,5,1,2931.7000000476837,745044.1000000238,7004,NTS,A,19
4,13,test,2,C,circle.png,1,z,Wed Sep 04 2024 13:47:02 GMT-0500 (Central Daylight Time),750565.7000000477,1400,O,z,1159,4,1,2585.2000000476837,747980.5,7004,NTS,A,20
2,14,test,2,C,circle.png,1,z,Wed Sep 04 2024 13:47:02 GMT-0500 (Central Daylight Time),753085.6000000238,1700,O,z,788,10,1,2511.7999999523163,750573.8000000715,7004,NTS,A,21
6,15,test,2,C,triangle.png,1,m,Wed Sep 04 2024 13:47:02 GMT-0500 (Central Daylight Time),755239.8000000715,1000,O,m,1120,13,1,2145.600000023842,753094.2000000477,7004,NTS,A,22
9,15,test,2,C,triangle.png,0,z,Wed Sep 04 2024 13:47:02 GMT-0500 (Central Daylight Time),758162.7000000477,1400,O,None,1502,24,1,2916.5,755246.2000000477,7004,NTS,A,23
9,16,test,2,C,circle.png,1,m,Wed Sep 04 2024 13:47:02 GMT-0500 (Central Daylight Time),760767.7000000477,1500,O,m,1080,8,1,2596.399999976158,758171.3000000715,7004,NTS,A,24
7,1,test,3,C,circle.png,1,m,Wed Sep 04 2024 13:47:02 GMT-0500 (Central Daylight Time),775430.3000000715,2000,O,m,1099,14,1,3111.399999976158,772318.9000000954,7004,NTS,A,1
1,2,test,3,C,circle.png,1,z,Wed Sep 04 2024 13:47:02 GMT-0500 (Central Daylight Time),777082.7000000477,1000,O,z,617,17,1,1645.3999999761581,775437.3000000715,7004,NTS,A,2
8,2,test,3,C,triangle.png,0,m,Wed Sep 04 2024 13:47:02 GMT-0500 (Central Daylight Time),780205.9000000954,1600,O,None,1502,7,1,3115.0,777090.9000000954,7004,NTS,A,3
2,2,test,3,C,triangle.png,0,m,Wed Sep 04 2024 13:47:02 GMT-0500 (Central Daylight Time),783729.4000000954,2000,O,None,1502,2,1,3516.600000023842,780212.8000000715,7004,NTS,A,4
3,3,test,3,C,triangle.png,1,z,Wed Sep 04 2024 13:47:02 GMT-0500 (Central Daylight Time),786167.3000000715,1200,O,z,1214,3,1,2426.7000000476837,783740.6000000238,7004,NTS,A,5
7,3,test,3,C,triangle.png,0,z,Wed Sep 04 2024 13:47:02 GMT-0500 (Central Daylight Time),789391.5,1700,O,None,1503,22,1,3215.6999999284744,786175.8000000715,7004,NTS,A,6
9,3,test,3,C,triangle.png,0,z,Wed Sep 04 2024 13:47:02 GMT-0500 (Central Daylight Time),792312.9000000954,1400,O,None,1503,16,1,2914.3000000715256,789398.6000000238,7004,NTS,A,7
2,4,test,3,C,circle.png,1,z,Wed Sep 04 2024 13:47:02 GMT-0500 (Central Daylight Time),795468.5,1700,O,z,1427,10,1,3143.899999976158,792324.6000000238,7004,NTS,A,8
1,5,test,3,C,circle.png,1,z,Wed Sep 04 2024 13:47:02 GMT-0500 (Central Daylight Time),797373.9000000954,1000,O,z,882,1,1,1897.5,795476.4000000954,7004,NTS,A,9
7,6,test,3,C,triangle.png,1,z,Wed Sep 04 2024 13:47:02 GMT-0500 (Central Daylight Time),800377.8000000715,1700,O,z,1270,6,1,3000.8000000715256,797377.0,7004,NTS,A,10
6,7,test,3,C,circle.png,1,m,Wed Sep 04 2024 13:47:02 GMT-0500 (Central Daylight Time),803283.6000000238,1900,O,m,982,21,1,2895.100000023842,800388.5,7004,NTS,A,11
4,8,test,3,C,triangle.png,1,m,Wed Sep 04 2024 13:47:02 GMT-0500 (Central Daylight Time),806256.5,1500,O,m,1447,12,1,2965.5999999046326,803290.9000000954,7004,NTS,A,12
6,9,test,3,C,circle.png,1,m,Wed Sep 04 2024 13:47:02 GMT-0500 (Central Daylight Time),809044.2000000477,1900,O,m,863,5,1,2779.2000000476837,806265.0,7004,NTS,A,13
1,9,test,3,C,triangle.png,0,z,Wed Sep 04 2024 13:47:02 GMT-0500 (Central Daylight Time),812451.6000000238,1900,O,None,1502,9,1,3404.0,809047.6000000238,7004,NTS,A,14
6,9,test,3,C,triangle.png,0,m,Wed Sep 04 2024 13:47:02 GMT-0500 (Central Daylight Time),814972.9000000954,1000,O,None,1502,13,1,2513.8000000715256,812459.1000000238,7004,NTS,A,15
3,9,test,3,C,triangle.png,0,z,Wed Sep 04 2024 13:47:02 GMT-0500 (Central Daylight Time),817695.0,1200,O,None,1502,19,1,2716.0999999046326,814978.9000000954,7004,NTS,A,16
2,9,test,3,C,triangle.png,0,m,Wed Sep 04 2024 13:47:02 GMT-0500 (Central Daylight Time),821218.4000000954,2000,O,None,1502,18,1,3514.9000000953674,817703.5,7004,NTS,A,17
8,10,test,3,C,triangle.png,1,m,Wed Sep 04 2024 13:47:02 GMT-0500 (Central Daylight Time),824190.7000000477,1600,O,m,1347,23,1,2959.0,821231.7000000477,7004,NTS,A,18
4,11,test,3,C,circle.png,1,z,Wed Sep 04 2024 13:47:02 GMT-0500 (Central Daylight Time),826946.0,1400,O,z,1335,4,1,2744.0,824202.0,7004,NTS,A,19
8,12,test,3,C,circle.png,1,m,Wed Sep 04 2024 13:47:02 GMT-0500 (Central Daylight Time),829200.6000000238,1200,O,m,1030,15,1,2247.600000023842,826953.0,7004,NTS,A,20
4,13,test,3,C,circle.png,1,z,Wed Sep 04 2024 13:47:02 GMT-0500 (Central Daylight Time),831489.0,1400,O,z,854,20,1,2280.0,829209.0,7004,NTS,A,21
9,14,test,3,C,circle.png,1,m,Wed Sep 04 2024 13:47:02 GMT-0500 (Central Daylight Time),834076.9000000954,1500,O,m,1057,24,1,2577.5,831499.4000000954,7004,NTS,A,22
9,15,test,3,C,circle.png,1,m,Wed Sep 04 2024 13:47:02 GMT-0500 (Central Daylight Time),836682.6000000238,1500,O,m,1085,8,1,2597.100000023842,834085.5,7004,NTS,A,23
3,16,test,3,C,circle.png,1,z,Wed Sep 04 2024 13:47:02 GMT-0500 (Central Daylight Time),839153.6000000238,1600,O,z,835,11,1,2458.899999976158,836694.7000000477,7004,NTS,A,24
3,1,test,4,C,circle.png,1,z,Wed Sep 04 2024 13:47:02 GMT-0500 (Central Daylight Time),846502.2000000477,1600,O,z,740,11,1,2369.899999976158,844132.3000000715,7004,NTS,A,1
1,2,test,4,C,triangle.png,1,z,Wed Sep 04 2024 13:47:02 GMT-0500 (Central Daylight Time),849757.3000000715,1900,O,z,1331,9,1,3247.7000000476837,846509.6000000238,7004,NTS,A,2
8,3,test,4,C,circle.png,1,m,Wed Sep 04 2024 13:47:02 GMT-0500 (Central Daylight Time),851928.9000000954,1200,O,m,944,15,1,2162.4000000953674,849766.5,7004,NTS,A,3
4,4,test,4,C,circle.png,1,z,Wed Sep 04 2024 13:47:02 GMT-0500 (Central Daylight Time),854366.5,1400,O,z,1007,20,1,2430.399999976158,851936.1000000238,7004,NTS,A,4
6,5,test,4,C,circle.png,1,m,Wed Sep 04 2024 13:47:02 GMT-0500 (Central Daylight Time),857005.0,1900,O,m,707,5,1,2629.5,854375.5,7004,NTS,A,5
7,5,test,4,C,triangle.png,0,z,Wed Sep 04 2024 13:47:02 GMT-0500 (Central Daylight Time),860228.0,1700,O,None,1502,6,1,3214.0,857014.0,7004,NTS,A,6
9,6,test,4,C,circle.png,1,m,Wed Sep 04 2024 13:47:02 GMT-0500 (Central Daylight Time),862899.6000000238,1500,O,m,1143,8,1,2658.1999999284744,860241.4000000954,7004,NTS,A,7
2,7,test,4,C,triangle.png,1,m,Wed Sep 04 2024 13:47:02 GMT-0500 (Central Daylight Time),866406.6000000238,2000,O,m,1481,18,1,3497.399999976158,862909.2000000477,7004,NTS,A,8
7,8,test,4,C,triangle.png,1,z,Wed Sep 04 2024 13:47:02 GMT-0500 (Central Daylight Time),869428.5,1700,O,z,1297,22,1,3009.5999999046326,866418.9000000954,7004,NTS,A,9
4,9,test,4,C,circle.png,1,z,Wed Sep 04 2024 13:47:02 GMT-0500 (Central Daylight Time),871850.5,1400,O,z,1017,4,1,2419.399999976158,869431.1000000238,7004,NTS,A,10
3,9,test,4,C,triangle.png,0,z,Wed Sep 04 2024 13:47:02 GMT-0500 (Central Daylight Time),874571.8000000715,1200,O,None,1501,19,1,2712.2000000476837,871859.6000000238,7004,NTS,A,11
2,9,test,4,C,triangle.png,0,m,Wed Sep 04 2024 13:47:02 GMT-0500 (Central Daylight Time),878095.8000000715,2000,O,None,1502,2,1,3512.3000000715256,874583.5,7004,NTS,A,12
6,10,test,4,C,triangle.png,1,m,Wed Sep 04 2024 13:47:02 GMT-0500 (Central Daylight Time),880400.7000000477,1000,O,m,1279,13,1,2297.7999999523163,878102.9000000954,7004,NTS,A,13
8,11,test,4,C,triangle.png,1,m,Wed Sep 04 2024 13:47:02 GMT-0500 (Central Daylight Time),883189.1000000238,1600,O,m,1157,7,1,2780.5,880408.6000000238,7004,NTS,A,14
4,12,test,4,C,triangle.png,1,m,Wed Sep 04 2024 13:47:02 GMT-0500 (Central Daylight Time),885845.1000000238,1500,O,m,1133,12,1,2649.1999999284744,883195.9000000954,7004,NTS,A,15
1,13,test,4,C,circle.png,1,z,Wed Sep 04 2024 13:47:02 GMT-0500 (Central Daylight Time),887898.5,1000,O,z,1034,17,1,2045.0999999046326,885853.4000000954,7004,NTS,A,16
3,14,test,4,C,triangle.png,1,z,Wed Sep 04 2024 13:47:02 GMT-0500 (Central Daylight Time),890419.6000000238,1200,O,z,1291,3,1,2509.7999999523163,887909.8000000715,7004,NTS,A,17
9,15,test,4,C,triangle.png,1,z,Wed Sep 04 2024 13:47:02 GMT-0500 (Central Daylight Time),893274.6000000238,1400,O,z,1433,16,1,2847.2999999523163,890427.3000000715,7004,NTS,A,18
7,15,test,4,C,circle.png,0,m,Wed Sep 04 2024 13:47:02 GMT-0500 (Central Daylight Time),896782.3000000715,2000,O,None,1502,14,1,3504.899999976158,893277.4000000954,7004,NTS,A,19
8,16,test,4,C,triangle.png,1,m,Wed Sep 04 2024 13:47:02 GMT-0500 (Central Daylight Time),899704.2000000477,1600,O,m,1296,23,1,2913.2999999523163,896790.9000000954,7004,NTS,A,20
9,17,test,4,C,circle.png,1,m,Wed Sep 04 2024 13:47:02 GMT-0500 (Central Daylight Time),902176.2000000477,1500,O,m,938,24,1,2462.2000000476837,899714.0,7004,NTS,A,21
1,18,test,4,C,circle.png,1,z,Wed Sep 04 2024 13:47:02 GMT-0500 (Central Daylight Time),904446.9000000954,1000,O,z,1247,1,1,2262.4000000953674,902184.5,7004,NTS,A,22
6,19,test,4,C,circle.png,1,m,Wed Sep 04 2024 13:47:02 GMT-0500 (Central Daylight Time),907469.7000000477,1900,O,m,1097,21,1,3012.100000023842,904457.6000000238,7004,NTS,A,23
2,20,test,4,C,circle.png,1,z,Wed Sep 04 2024 13:47:02 GMT-0500 (Central Daylight Time),910192.0,1700,O,z,988,10,1,2714.6999999284744,907477.3000000715,7004,NTS,A,24
