Number,acc_sum,block,block_c,block_cond,con_img,correct,correct_response,datetime,endtime,jitter,project,response,response_time,row_sel,session_number,start_end,starttime,subject_id,task,task_vers,trial
6,0,prac,1,A,circle.png,0,m,Wed Oct 30 2024 13:15:10 GMT-0500 (Central Daylight Time),70869.80000000447,1900,I,None,1515,5,1,4191.70000000298,66678.10000000149,8005,NTS,A,1
4,1,prac,1,A,circle.png,1,z,Wed Oct 30 2024 13:15:10 GMT-0500 (Central Daylight Time),73636.89999999851,1400,I,z,579,4,1,2761.0999999940395,70875.80000000447,8005,NTS,A,2
7,2,prac,1,A,circle.png,1,m,Wed Oct 30 2024 13:15:10 GMT-0500 (Central Daylight Time),76618.20000000298,1700,I,m,490,6,1,2975.8000000044703,73642.39999999851,8005,NTS,A,3
3,3,prac,1,A,circle.png,1,z,Wed Oct 30 2024 13:15:10 GMT-0500 (Central Daylight Time),79117.39999999851,1200,I,z,511,3,1,2493.2999999970198,76624.10000000149,8005,NTS,A,4
8,4,prac,1,A,circle.png,1,m,Wed Oct 30 2024 13:15:10 GMT-0500 (Central Daylight Time),81999.80000000447,1600,I,m,500,7,1,2876.8000000044703,79123.0,8005,NTS,A,5
1,5,prac,1,A,circle.png,1,z,Wed Oct 30 2024 13:15:10 GMT-0500 (Central Daylight Time),84449.0,1000,I,z,657,1,1,2443.2999999970198,82005.70000000298,8005,NTS,A,6
8,6,prac,1,A,circle.png,1,m,Wed Oct 30 2024 13:15:10 GMT-0500 (Central Daylight Time),87364.89999999851,1600,I,m,528,7,1,2910.6999999955297,84454.20000000298,8005,NTS,A,7
2,7,prac,1,A,circle.png,1,z,Wed Oct 30 2024 13:15:10 GMT-0500 (Central Daylight Time),90681.60000000149,2000,I,z,472,2,1,3311.7000000029802,87369.89999999851,8005,NTS,A,8
9,8,prac,1,A,circle.png,1,m,Wed Oct 30 2024 13:15:10 GMT-0500 (Central Daylight Time),93512.70000000298,1500,I,m,540,8,1,2825.8000000044703,90686.89999999851,8005,NTS,A,9
7,9,prac,1,A,circle.png,1,m,Wed Oct 30 2024 13:15:10 GMT-0500 (Central Daylight Time),96495.20000000298,1700,I,m,493,6,1,2977.10000000149,93518.10000000149,8005,NTS,A,10
9,10,prac,1,A,circle.png,1,m,Wed Oct 30 2024 13:15:10 GMT-0500 (Central Daylight Time),99227.5,1500,I,m,439,8,1,2726.89999999851,96500.60000000149,8005,NTS,A,11
6,11,prac,1,A,circle.png,1,m,Wed Oct 30 2024 13:15:10 GMT-0500 (Central Daylight Time),102543.5,1900,I,m,618,5,1,3310.1999999955297,99233.30000000447,8005,NTS,A,12
3,1,prac,1,B,triangle.png,1,z,Wed Oct 30 2024 13:15:10 GMT-0500 (Central Daylight Time),133183.8999999985,1600,I,z,1325,3,1,3711.1999999955297,129472.70000000298,8005,NTS,A,1
2,1,prac,1,B,triangle.png,0,m,Wed Oct 30 2024 13:15:10 GMT-0500 (Central Daylight Time),136249.6000000015,1700,I,z,582,2,1,3059.89999999851,133189.70000000298,8005,NTS,A,2
6,2,prac,1,B,triangle.png,1,m,Wed Oct 30 2024 13:15:10 GMT-0500 (Central Daylight Time),138532.0,1000,I,m,496,5,1,2277.60000000149,136254.3999999985,8005,NTS,A,3
4,3,prac,1,B,triangle.png,1,m,Wed Oct 30 2024 13:15:10 GMT-0500 (Central Daylight Time),141264.3999999985,1500,I,m,433,4,1,2727.5999999940395,138536.80000000447,8005,NTS,A,4
3,4,prac,1,B,triangle.png,1,z,Wed Oct 30 2024 13:15:10 GMT-0500 (Central Daylight Time),144097.0,1600,I,z,434,3,1,2827.60000000149,141269.3999999985,8005,NTS,A,5
8,5,prac,1,B,triangle.png,1,m,Wed Oct 30 2024 13:15:10 GMT-0500 (Central Daylight Time),146662.8999999985,1200,I,m,576,7,1,2560.7999999970198,144102.1000000015,8005,NTS,A,6
7,6,prac,1,B,triangle.png,1,z,Wed Oct 30 2024 13:15:10 GMT-0500 (Central Daylight Time),150195.1000000015,2000,I,z,739,6,1,3527.10000000149,146668.0,8005,NTS,A,7
1,7,prac,1,B,triangle.png,1,z,Wed Oct 30 2024 13:15:10 GMT-0500 (Central Daylight Time),153410.70000000298,1900,I,z,530,1,1,3210.5,150200.20000000298,8005,NTS,A,8
8,8,prac,1,B,triangle.png,1,m,Wed Oct 30 2024 13:15:10 GMT-0500 (Central Daylight Time),155860.0,1200,I,m,463,7,1,2444.39999999851,153415.6000000015,8005,NTS,A,9
9,9,prac,1,B,triangle.png,1,z,Wed Oct 30 2024 13:15:10 GMT-0500 (Central Daylight Time),158925.80000000447,1400,I,z,877,8,1,3060.7000000029802,155865.1000000015,8005,NTS,A,10
7,9,prac,1,B,triangle.png,0,z,Wed Oct 30 2024 13:15:10 GMT-0500 (Central Daylight Time),162307.8999999985,2000,I,m,596,6,1,3377.0999999940395,158930.80000000447,8005,NTS,A,11
4,10,prac,1,B,triangle.png,1,m,Wed Oct 30 2024 13:15:10 GMT-0500 (Central Daylight Time),165540.3999999985,1500,I,m,938,4,1,3227.5,162312.8999999985,8005,NTS,A,12
8,1,test,1,A,circle.png,1,m,Wed Oct 30 2024 13:15:10 GMT-0500 (Central Daylight Time),193231.5,1600,I,m,685,7,1,2310.60000000149,190920.8999999985,8005,NTS,A,1
7,2,test,1,A,circle.png,1,m,Wed Oct 30 2024 13:15:10 GMT-0500 (Central Daylight Time),195497.5,1700,I,m,534,6,1,2261.6999999955297,193235.80000000447,8005,NTS,A,2
9,3,test,1,A,circle.png,1,m,Wed Oct 30 2024 13:15:10 GMT-0500 (Central Daylight Time),197596.8999999985,1500,I,m,580,8,1,2095.7999999970198,195501.1000000015,8005,NTS,A,3
6,4,test,1,A,circle.png,1,m,Wed Oct 30 2024 13:15:10 GMT-0500 (Central Daylight Time),200062.70000000298,1900,I,m,545,5,1,2462.2000000029802,197600.5,8005,NTS,A,4
1,5,test,1,A,circle.png,1,z,Wed Oct 30 2024 13:15:10 GMT-0500 (Central Daylight Time),201612.20000000298,1000,I,z,530,1,1,1545.7000000029802,200066.5,8005,NTS,A,5
1,6,test,1,A,circle.png,1,z,Wed Oct 30 2024 13:15:10 GMT-0500 (Central Daylight Time),203045.1000000015,1000,I,z,413,1,1,1429.2000000029802,201615.8999999985,8005,NTS,A,6
4,7,test,1,A,circle.png,1,z,Wed Oct 30 2024 13:15:10 GMT-0500 (Central Daylight Time),205227.8999999985,1400,I,z,764,4,1,2179.0999999940395,203048.80000000447,8005,NTS,A,7
7,8,test,1,A,circle.png,1,m,Wed Oct 30 2024 13:15:10 GMT-0500 (Central Daylight Time),207477.1000000015,1700,I,m,521,6,1,2245.60000000149,205231.5,8005,NTS,A,8
2,9,test,1,A,circle.png,1,z,Wed Oct 30 2024 13:15:10 GMT-0500 (Central Daylight Time),209993.0,2000,I,z,492,2,1,2512.2999999970198,207480.70000000298,8005,NTS,A,9
6,10,test,1,A,circle.png,1,m,Wed Oct 30 2024 13:15:10 GMT-0500 (Central Daylight Time),212492.0,1900,I,m,580,5,1,2495.2999999970198,209996.70000000298,8005,NTS,A,10
6,11,test,1,A,circle.png,1,m,Wed Oct 30 2024 13:15:10 GMT-0500 (Central Daylight Time),214824.80000000447,1900,I,m,409,5,1,2329.0,212495.80000000447,8005,NTS,A,11
7,12,test,1,A,circle.png,1,m,Wed Oct 30 2024 13:15:10 GMT-0500 (Central Daylight Time),217324.20000000298,1700,I,m,772,6,1,2495.89999999851,214828.30000000447,8005,NTS,A,12
8,13,test,1,A,circle.png,1,m,Wed Oct 30 2024 13:15:10 GMT-0500 (Central Daylight Time),219373.30000000447,1600,I,m,429,7,1,2045.1000000014901,217328.20000000298,8005,NTS,A,13
3,14,test,1,A,circle.png,1,z,Wed Oct 30 2024 13:15:10 GMT-0500 (Central Daylight Time),221189.30000000447,1200,I,z,587,3,1,1812.1000000014901,219377.20000000298,8005,NTS,A,14
4,15,test,1,A,circle.png,1,z,Wed Oct 30 2024 13:15:10 GMT-0500 (Central Daylight Time),223355.5,1400,I,z,740,4,1,2162.39999999851,221193.1000000015,8005,NTS,A,15
3,16,test,1,A,circle.png,1,z,Wed Oct 30 2024 13:15:10 GMT-0500 (Central Daylight Time),225154.80000000447,1200,I,z,574,3,1,1795.6000000014901,223359.20000000298,8005,NTS,A,16
9,17,test,1,A,circle.png,1,m,Wed Oct 30 2024 13:15:10 GMT-0500 (Central Daylight Time),227237.70000000298,1500,I,m,563,8,1,2079.0,225158.70000000298,8005,NTS,A,17
4,18,test,1,A,circle.png,1,z,Wed Oct 30 2024 13:15:10 GMT-0500 (Central Daylight Time),229686.80000000447,1400,I,z,1020,4,1,2445.4000000059605,227241.3999999985,8005,NTS,A,18
2,19,test,1,A,circle.png,1,z,Wed Oct 30 2024 13:15:10 GMT-0500 (Central Daylight Time),232385.8999999985,2000,I,z,675,2,1,2695.39999999851,229690.5,8005,NTS,A,19
8,20,test,1,A,circle.png,1,m,Wed Oct 30 2024 13:15:10 GMT-0500 (Central Daylight Time),234685.20000000298,1600,I,m,671,7,1,2295.7000000029802,232389.5,8005,NTS,A,20
1,21,test,1,A,circle.png,1,z,Wed Oct 30 2024 13:15:10 GMT-0500 (Central Daylight Time),236184.70000000298,1000,I,z,467,1,1,1495.8000000044703,234688.8999999985,8005,NTS,A,21
6,22,test,1,A,circle.png,1,m,Wed Oct 30 2024 13:15:10 GMT-0500 (Central Daylight Time),238617.1000000015,1900,I,m,509,5,1,2428.89999999851,236188.20000000298,8005,NTS,A,22
9,23,test,1,A,circle.png,1,m,Wed Oct 30 2024 13:15:10 GMT-0500 (Central Daylight Time),240616.6000000015,1500,I,m,467,8,1,1995.7999999970198,238620.80000000447,8005,NTS,A,23
8,24,test,1,A,circle.png,1,m,Wed Oct 30 2024 13:15:10 GMT-0500 (Central Daylight Time),242799.3999999985,1600,I,m,553,7,1,2179.1999999955297,240620.20000000298,8005,NTS,A,24
6,1,test,1,B,triangle.png,1,m,Wed Oct 30 2024 13:15:10 GMT-0500 (Central Daylight Time),257878.0,1000,I,m,995,5,1,2012.6000000014901,255865.3999999985,8005,NTS,A,1
1,2,test,1,B,triangle.png,1,z,Wed Oct 30 2024 13:15:10 GMT-0500 (Central Daylight Time),259761.8999999985,1400,I,z,452,9,1,1879.8999999985099,257882.0,8005,NTS,A,2
3,3,test,1,B,triangle.png,1,z,Wed Oct 30 2024 13:15:10 GMT-0500 (Central Daylight Time),261843.1000000015,1600,I,z,465,3,1,2077.5,259765.6000000015,8005,NTS,A,3
3,4,test,1,B,triangle.png,1,z,Wed Oct 30 2024 13:15:10 GMT-0500 (Central Daylight Time),264426.1000000015,2000,I,z,550,11,1,2578.89999999851,261847.20000000298,8005,NTS,A,4
2,5,test,1,B,triangle.png,1,m,Wed Oct 30 2024 13:15:10 GMT-0500 (Central Daylight Time),266824.8999999985,1700,I,m,676,2,1,2395.1999999955297,264429.700000003,8005,NTS,A,5
7,6,test,1,B,triangle.png,1,z,Wed Oct 30 2024 13:15:10 GMT-0500 (Central Daylight Time),269024.5,1600,I,z,576,14,1,2196.0,266828.5,8005,NTS,A,6
4,7,test,1,B,triangle.png,1,m,Wed Oct 30 2024 13:15:10 GMT-0500 (Central Daylight Time),271057.1000000015,1500,I,m,500,4,1,2029.0,269028.1000000015,8005,NTS,A,7
9,8,test,1,B,triangle.png,1,z,Wed Oct 30 2024 13:15:10 GMT-0500 (Central Daylight Time),273306.200000003,1400,I,z,816,8,1,2245.60000000149,271060.6000000015,8005,NTS,A,8
9,9,test,1,B,triangle.png,1,z,Wed Oct 30 2024 13:15:10 GMT-0500 (Central Daylight Time),276272.1000000015,1900,I,z,1043,16,1,2961.7999999970198,273310.30000000447,8005,NTS,A,9
4,10,test,1,B,triangle.png,1,m,Wed Oct 30 2024 13:15:10 GMT-0500 (Central Daylight Time),277866.1000000015,1000,I,m,577,12,1,1589.6000000014901,276276.5,8005,NTS,A,10
1,11,test,1,B,triangle.png,1,z,Wed Oct 30 2024 13:15:10 GMT-0500 (Central Daylight Time),280354.30000000447,1900,I,z,575,1,1,2484.2000000029802,277870.1000000015,8005,NTS,A,11
7,12,test,1,B,triangle.png,1,z,Wed Oct 30 2024 13:15:10 GMT-0500 (Central Daylight Time),283136.3999999985,2000,I,z,751,6,1,2778.39999999851,280358.0,8005,NTS,A,12
2,13,test,1,B,triangle.png,1,m,Wed Oct 30 2024 13:15:10 GMT-0500 (Central Daylight Time),285419.200000003,1700,I,m,557,2,1,2279.2000000029802,283140.0,8005,NTS,A,13
6,14,test,1,B,triangle.png,1,m,Wed Oct 30 2024 13:15:10 GMT-0500 (Central Daylight Time),287435.0,1500,I,m,498,13,1,2012.1000000014901,285422.8999999985,8005,NTS,A,14
2,15,test,1,B,triangle.png,1,m,Wed Oct 30 2024 13:15:10 GMT-0500 (Central Daylight Time),289334.30000000447,1200,I,m,677,10,1,1895.6000000014901,287438.700000003,8005,NTS,A,15
4,16,test,1,B,triangle.png,1,m,Wed Oct 30 2024 13:15:10 GMT-0500 (Central Daylight Time),290834.200000003,1000,I,m,483,12,1,1495.8000000044703,289338.3999999985,8005,NTS,A,16
2,17,test,1,B,triangle.png,1,m,Wed Oct 30 2024 13:15:10 GMT-0500 (Central Daylight Time),292600.3999999985,1200,I,m,543,10,1,1762.5,290837.8999999985,8005,NTS,A,17
8,18,test,1,B,triangle.png,1,m,Wed Oct 30 2024 13:15:10 GMT-0500 (Central Daylight Time),294816.30000000447,1700,I,m,493,15,1,2212.3000000044703,292604.0,8005,NTS,A,18
1,19,test,1,B,triangle.png,1,z,Wed Oct 30 2024 13:15:10 GMT-0500 (Central Daylight Time),297149.0,1900,I,z,405,1,1,2329.1999999955297,294819.80000000447,8005,NTS,A,19
8,20,test,1,B,triangle.png,1,m,Wed Oct 30 2024 13:15:10 GMT-0500 (Central Daylight Time),298898.5,1200,I,m,524,7,1,1746.0,297152.5,8005,NTS,A,20
6,21,test,1,B,triangle.png,1,m,Wed Oct 30 2024 13:15:10 GMT-0500 (Central Daylight Time),301031.1000000015,1500,I,m,603,13,1,2128.89999999851,298902.200000003,8005,NTS,A,21
9,22,test,1,B,triangle.png,1,z,Wed Oct 30 2024 13:15:10 GMT-0500 (Central Daylight Time),303497.200000003,1900,I,z,543,16,1,2462.5,301034.700000003,8005,NTS,A,22
1,23,test,1,B,triangle.png,1,z,Wed Oct 30 2024 13:15:10 GMT-0500 (Central Daylight Time),305512.8999999985,1400,I,z,592,9,1,2011.7999999970198,303501.1000000015,8005,NTS,A,23
3,24,test,1,B,triangle.png,1,z,Wed Oct 30 2024 13:15:10 GMT-0500 (Central Daylight Time),308328.700000003,2000,I,z,785,11,1,2812.0,305516.700000003,8005,NTS,A,24
2,0,prac,1,C,triangle.png,0,m,Wed Oct 30 2024 13:15:10 GMT-0500 (Central Daylight Time),357080.200000003,1600,I,None,1516,2,1,3894.0,353186.200000003,8005,NTS,A,1
3,1,prac,1,C,triangle.png,1,z,Wed Oct 30 2024 13:15:10 GMT-0500 (Central Daylight Time),359846.200000003,1500,I,z,477,3,1,2760.8000000044703,357085.3999999985,8005,NTS,A,2
1,2,prac,1,C,circle.png,1,z,Wed Oct 30 2024 13:15:10 GMT-0500 (Central Daylight Time),363128.3999999985,1700,I,z,792,1,1,3277.0999999940395,359851.30000000447,8005,NTS,A,3
8,3,prac,1,C,triangle.png,1,m,Wed Oct 30 2024 13:15:10 GMT-0500 (Central Daylight Time),365944.1000000015,1400,I,m,625,7,1,2810.89999999851,363133.200000003,8005,NTS,A,4
4,4,prac,1,C,circle.png,1,z,Wed Oct 30 2024 13:15:10 GMT-0500 (Central Daylight Time),368393.3999999985,1000,I,z,656,4,1,2444.5,365948.8999999985,8005,NTS,A,5
8,5,prac,1,C,triangle.png,1,m,Wed Oct 30 2024 13:15:10 GMT-0500 (Central Daylight Time),371292.5,1400,I,m,704,7,1,2894.10000000149,368398.3999999985,8005,NTS,A,6
6,6,prac,1,C,circle.png,1,m,Wed Oct 30 2024 13:15:10 GMT-0500 (Central Daylight Time),374940.8999999985,2000,I,m,853,5,1,3643.39999999851,371297.5,8005,NTS,A,7
9,7,prac,1,C,circle.png,1,m,Wed Oct 30 2024 13:15:10 GMT-0500 (Central Daylight Time),378356.80000000447,1900,I,m,720,8,1,3411.0,374945.80000000447,8005,NTS,A,8
9,8,prac,1,C,circle.png,1,m,Wed Oct 30 2024 13:15:10 GMT-0500 (Central Daylight Time),381806.8999999985,1900,I,m,778,8,1,3445.2999999970198,378361.6000000015,8005,NTS,A,9
6,9,prac,1,C,circle.png,1,m,Wed Oct 30 2024 13:15:10 GMT-0500 (Central Daylight Time),385271.30000000447,2000,I,m,676,5,1,3459.2000000029802,381812.1000000015,8005,NTS,A,10
2,10,prac,1,C,triangle.png,1,m,Wed Oct 30 2024 13:15:10 GMT-0500 (Central Daylight Time),388770.3999999985,1600,I,m,1106,2,1,3494.0999999940395,385276.30000000447,8005,NTS,A,11
7,11,prac,1,C,triangle.png,1,z,Wed Oct 30 2024 13:15:10 GMT-0500 (Central Daylight Time),391819.30000000447,1200,I,z,1055,6,1,3044.2000000029802,388775.1000000015,8005,NTS,A,12
7,1,test,1,C,triangle.png,1,z,Wed Oct 30 2024 13:15:10 GMT-0500 (Central Daylight Time),407598.80000000447,1700,I,z,1371,6,1,3096.7000000029802,404502.1000000015,8005,NTS,A,1
7,2,test,1,C,circle.png,1,m,Wed Oct 30 2024 13:15:10 GMT-0500 (Central Daylight Time),410363.3999999985,2000,I,m,740,14,1,2759.6999999955297,407603.700000003,8005,NTS,A,2
7,3,test,1,C,triangle.png,1,z,Wed Oct 30 2024 13:15:10 GMT-0500 (Central Daylight Time),412895.8999999985,1700,I,z,810,22,1,2527.5999999940395,410368.30000000447,8005,NTS,A,3
2,4,test,1,C,circle.png,1,z,Wed Oct 30 2024 13:15:10 GMT-0500 (Central Daylight Time),415361.8999999985,1700,I,z,733,18,1,2462.0,412899.8999999985,8005,NTS,A,4
8,5,test,1,C,circle.png,1,m,Wed Oct 30 2024 13:15:10 GMT-0500 (Central Daylight Time),417527.80000000447,1200,I,m,943,15,1,2162.0,415365.80000000447,8005,NTS,A,5
9,6,test,1,C,circle.png,1,m,Wed Oct 30 2024 13:15:10 GMT-0500 (Central Daylight Time),419777.200000003,1500,I,m,689,24,1,2245.5,417531.700000003,8005,NTS,A,6
4,7,test,1,C,triangle.png,1,m,Wed Oct 30 2024 13:15:10 GMT-0500 (Central Daylight Time),422209.6000000015,1500,I,m,900,12,1,2428.5,419781.1000000015,8005,NTS,A,7
6,8,test,1,C,circle.png,1,m,Wed Oct 30 2024 13:15:10 GMT-0500 (Central Daylight Time),425308.700000003,1900,I,m,1180,21,1,3095.39999999851,422213.30000000447,8005,NTS,A,8
4,8,test,1,C,circle.png,0,z,Wed Oct 30 2024 13:15:10 GMT-0500 (Central Daylight Time),427691.30000000447,1400,I,m,957,4,1,2378.8000000044703,425312.5,8005,NTS,A,9
2,9,test,1,C,triangle.png,1,m,Wed Oct 30 2024 13:15:10 GMT-0500 (Central Daylight Time),430923.5,2000,I,m,1206,2,1,3228.2999999970198,427695.200000003,8005,NTS,A,10
1,9,test,1,C,triangle.png,0,z,Wed Oct 30 2024 13:15:10 GMT-0500 (Central Daylight Time),434356.0,1900,I,None,1516,17,1,3428.60000000149,430927.3999999985,8005,NTS,A,11
3,10,test,1,C,triangle.png,1,z,Wed Oct 30 2024 13:15:10 GMT-0500 (Central Daylight Time),436405.30000000447,1200,I,z,822,3,1,2041.7000000029802,434363.6000000015,8005,NTS,A,12
9,11,test,1,C,circle.png,1,m,Wed Oct 30 2024 13:15:10 GMT-0500 (Central Daylight Time),439171.1000000015,1500,I,m,1240,8,1,2762.2000000029802,436408.8999999985,8005,NTS,A,13
8,12,test,1,C,triangle.png,1,m,Wed Oct 30 2024 13:15:10 GMT-0500 (Central Daylight Time),441620.30000000447,1600,I,m,831,23,1,2445.3000000044703,439175.0,8005,NTS,A,14
9,13,test,1,C,triangle.png,1,z,Wed Oct 30 2024 13:15:10 GMT-0500 (Central Daylight Time),443936.3999999985,1400,I,z,885,16,1,2312.2999999970198,441624.1000000015,8005,NTS,A,15
3,14,test,1,C,circle.png,1,z,Wed Oct 30 2024 13:15:10 GMT-0500 (Central Daylight Time),446335.3999999985,1600,I,z,769,19,1,2395.1999999955297,443940.200000003,8005,NTS,A,16
6,15,test,1,C,circle.png,1,m,Wed Oct 30 2024 13:15:10 GMT-0500 (Central Daylight Time),449034.6000000015,1900,I,m,767,5,1,2695.2999999970198,446339.30000000447,8005,NTS,A,17
8,16,test,1,C,triangle.png,1,m,Wed Oct 30 2024 13:15:10 GMT-0500 (Central Daylight Time),451433.80000000447,1600,I,m,775,7,1,2395.4000000059605,449038.3999999985,8005,NTS,A,18
3,17,test,1,C,circle.png,1,z,Wed Oct 30 2024 13:15:10 GMT-0500 (Central Daylight Time),453733.3999999985,1600,I,z,672,11,1,2295.6999999955297,451437.700000003,8005,NTS,A,19
4,18,test,1,C,triangle.png,1,m,Wed Oct 30 2024 13:15:10 GMT-0500 (Central Daylight Time),456333.5,1500,I,m,1081,20,1,2596.1999999955297,453737.30000000447,8005,NTS,A,20
2,19,test,1,C,circle.png,1,z,Wed Oct 30 2024 13:15:10 GMT-0500 (Central Daylight Time),458716.1000000015,1700,I,z,657,10,1,2378.5,456337.6000000015,8005,NTS,A,21
6,20,test,1,C,triangle.png,1,m,Wed Oct 30 2024 13:15:10 GMT-0500 (Central Daylight Time),460797.5,1000,I,m,1062,13,1,2077.39999999851,458720.1000000015,8005,NTS,A,22
1,20,test,1,C,triangle.png,0,z,Wed Oct 30 2024 13:15:10 GMT-0500 (Central Daylight Time),463780.0,1900,I,m,1056,9,1,2978.60000000149,460801.3999999985,8005,NTS,A,23
1,21,test,1,C,circle.png,1,z,Wed Oct 30 2024 13:15:10 GMT-0500 (Central Daylight Time),465679.5,1000,I,z,868,1,1,1895.6999999955297,463783.80000000447,8005,NTS,A,24
6,1,test,2,C,triangle.png,1,m,Wed Oct 30 2024 13:15:10 GMT-0500 (Central Daylight Time),479675.1000000015,1000,I,m,857,13,1,1879.6000000014901,477795.5,8005,NTS,A,1
2,2,test,2,C,triangle.png,1,m,Wed Oct 30 2024 13:15:10 GMT-0500 (Central Daylight Time),482374.200000003,2000,I,m,679,2,1,2695.10000000149,479679.1000000015,8005,NTS,A,2
2,3,test,2,C,circle.png,1,z,Wed Oct 30 2024 13:15:10 GMT-0500 (Central Daylight Time),484640.30000000447,1700,I,z,535,10,1,2262.3000000044703,482378.0,8005,NTS,A,3
1,4,test,2,C,triangle.png,1,z,Wed Oct 30 2024 13:15:10 GMT-0500 (Central Daylight Time),487206.0,1900,I,z,645,9,1,2561.6999999955297,484644.30000000447,8005,NTS,A,4
8,5,test,2,C,triangle.png,1,m,Wed Oct 30 2024 13:15:10 GMT-0500 (Central Daylight Time),489485.1000000015,1600,I,m,662,7,1,2275.2000000029802,487209.8999999985,8005,NTS,A,5
3,6,test,2,C,triangle.png,1,z,Wed Oct 30 2024 13:15:10 GMT-0500 (Central Daylight Time),491438.0,1200,I,z,729,3,1,1948.8999999985099,489489.1000000015,8005,NTS,A,6
4,7,test,2,C,circle.png,1,z,Wed Oct 30 2024 13:15:10 GMT-0500 (Central Daylight Time),493504.1000000015,1400,I,z,635,4,1,2062.10000000149,491442.0,8005,NTS,A,7
7,8,test,2,C,circle.png,1,m,Wed Oct 30 2024 13:15:10 GMT-0500 (Central Daylight Time),496186.5,2000,I,m,665,22,1,2678.6999999955297,493507.80000000447,8005,NTS,A,8
8,9,test,2,C,circle.png,1,m,Wed Oct 30 2024 13:15:10 GMT-0500 (Central Daylight Time),498252.3999999985,1200,I,m,847,23,1,2062.39999999851,496190.0,8005,NTS,A,9
8,10,test,2,C,circle.png,1,m,Wed Oct 30 2024 13:15:10 GMT-0500 (Central Daylight Time),500235.200000003,1200,I,m,757,15,1,1978.8999999985099,498256.30000000447,8005,NTS,A,10
9,11,test,2,C,circle.png,1,m,Wed Oct 30 2024 13:15:10 GMT-0500 (Central Daylight Time),502901.0,1500,I,m,1137,8,1,2661.10000000149,500239.8999999985,8005,NTS,A,11
3,12,test,2,C,circle.png,1,z,Wed Oct 30 2024 13:15:10 GMT-0500 (Central Daylight Time),505200.30000000447,1600,I,z,677,11,1,2295.4000000059605,502904.8999999985,8005,NTS,A,12
7,13,test,2,C,circle.png,1,m,Wed Oct 30 2024 13:15:10 GMT-0500 (Central Daylight Time),508083.8999999985,2000,I,m,858,14,1,2879.89999999851,505204.0,8005,NTS,A,13
3,14,test,2,C,circle.png,1,z,Wed Oct 30 2024 13:15:10 GMT-0500 (Central Daylight Time),510316.6000000015,1600,I,z,607,19,1,2228.2999999970198,508088.30000000447,8005,NTS,A,14
4,15,test,2,C,triangle.png,1,m,Wed Oct 30 2024 13:15:10 GMT-0500 (Central Daylight Time),512598.0,1500,I,m,754,12,1,2277.5,510320.5,8005,NTS,A,15
6,16,test,2,C,circle.png,1,m,Wed Oct 30 2024 13:15:10 GMT-0500 (Central Daylight Time),515180.30000000447,1900,I,m,656,5,1,2578.4000000059605,512601.8999999985,8005,NTS,A,16
1,17,test,2,C,circle.png,1,z,Wed Oct 30 2024 13:15:10 GMT-0500 (Central Daylight Time),516813.30000000447,1000,I,z,605,1,1,1629.3000000044703,515184.0,8005,NTS,A,17
6,18,test,2,C,triangle.png,1,m,Wed Oct 30 2024 13:15:10 GMT-0500 (Central Daylight Time),518912.6000000015,1000,I,m,1076,21,1,2094.89999999851,516817.700000003,8005,NTS,A,18
1,19,test,2,C,triangle.png,1,z,Wed Oct 30 2024 13:15:10 GMT-0500 (Central Daylight Time),521462.0,1900,I,z,621,17,1,2545.2999999970198,518916.700000003,8005,NTS,A,19
9,19,test,2,C,triangle.png,0,z,Wed Oct 30 2024 13:15:10 GMT-0500 (Central Daylight Time),523561.1000000015,1400,I,m,668,16,1,2095.5,521465.6000000015,8005,NTS,A,20
7,20,test,2,C,triangle.png,1,z,Wed Oct 30 2024 13:15:10 GMT-0500 (Central Daylight Time),526327.200000003,1700,I,z,1043,6,1,2762.2000000029802,523565.0,8005,NTS,A,21
9,21,test,2,C,triangle.png,1,z,Wed Oct 30 2024 13:15:10 GMT-0500 (Central Daylight Time),528509.6000000015,1400,I,z,762,24,1,2178.7000000029802,526330.8999999985,8005,NTS,A,22
4,22,test,2,C,triangle.png,1,m,Wed Oct 30 2024 13:15:10 GMT-0500 (Central Daylight Time),530742.3000000045,1500,I,m,712,20,1,2228.9000000059605,528513.3999999985,8005,NTS,A,23
2,23,test,2,C,circle.png,1,z,Wed Oct 30 2024 13:15:10 GMT-0500 (Central Daylight Time),533241.3999999985,1700,I,z,776,18,1,2493.6999999955297,530747.700000003,8005,NTS,A,24
6,1,test,3,C,circle.png,1,m,Wed Oct 30 2024 13:15:10 GMT-0500 (Central Daylight Time),538190.200000003,1900,I,m,1429,5,1,3346.0,534844.200000003,8005,NTS,A,1
2,2,test,3,C,triangle.png,1,m,Wed Oct 30 2024 13:15:10 GMT-0500 (Central Daylight Time),541172.5,2000,I,m,963,18,1,2978.5,538194.0,8005,NTS,A,2
8,3,test,3,C,circle.png,1,m,Wed Oct 30 2024 13:15:10 GMT-0500 (Central Daylight Time),543505.0,1200,I,m,1101,15,1,2329.0,541176.0,8005,NTS,A,3
7,4,test,3,C,circle.png,1,m,Wed Oct 30 2024 13:15:10 GMT-0500 (Central Daylight Time),546537.3000000045,2000,I,m,1001,14,1,3028.8000000044703,543508.5,8005,NTS,A,4
3,5,test,3,C,triangle.png,1,z,Wed Oct 30 2024 13:15:10 GMT-0500 (Central Daylight Time),549171.1000000015,1200,I,z,1408,19,1,2630.0,546541.1000000015,8005,NTS,A,5
8,6,test,3,C,triangle.png,1,m,Wed Oct 30 2024 13:15:10 GMT-0500 (Central Daylight Time),551402.8000000045,1600,I,m,601,7,1,2227.7000000029802,549175.1000000015,8005,NTS,A,6
8,7,test,3,C,triangle.png,1,m,Wed Oct 30 2024 13:15:10 GMT-0500 (Central Daylight Time),553651.8999999985,1600,I,m,622,23,1,2244.39999999851,551407.5,8005,NTS,A,7
4,8,test,3,C,circle.png,1,z,Wed Oct 30 2024 13:15:10 GMT-0500 (Central Daylight Time),556267.6000000015,1400,I,z,1198,20,1,2612.0,553655.6000000015,8005,NTS,A,8
1,9,test,3,C,circle.png,1,z,Wed Oct 30 2024 13:15:10 GMT-0500 (Central Daylight Time),557850.3999999985,1000,I,z,566,17,1,1579.2999999970198,556271.1000000015,8005,NTS,A,9
1,10,test,3,C,circle.png,1,z,Wed Oct 30 2024 13:15:10 GMT-0500 (Central Daylight Time),559366.700000003,1000,I,z,487,1,1,1512.7000000029802,557854.0,8005,NTS,A,10
6,11,test,3,C,circle.png,1,m,Wed Oct 30 2024 13:15:10 GMT-0500 (Central Daylight Time),562015.700000003,1900,I,m,727,21,1,2645.2000000029802,559370.5,8005,NTS,A,11
3,12,test,3,C,triangle.png,1,z,Wed Oct 30 2024 13:15:10 GMT-0500 (Central Daylight Time),563881.8000000045,1200,I,z,633,3,1,1860.6000000014901,562021.200000003,8005,NTS,A,12
6,13,test,3,C,triangle.png,1,m,Wed Oct 30 2024 13:15:10 GMT-0500 (Central Daylight Time),565532.6000000015,1000,I,m,623,13,1,1647.1000000014901,563885.5,8005,NTS,A,13
9,14,test,3,C,circle.png,1,m,Wed Oct 30 2024 13:15:10 GMT-0500 (Central Daylight Time),567730.5,1500,I,m,682,8,1,2194.0,565536.5,8005,NTS,A,14
9,15,test,3,C,circle.png,1,m,Wed Oct 30 2024 13:15:10 GMT-0500 (Central Daylight Time),569746.700000003,1500,I,m,491,24,1,2012.5,567734.200000003,8005,NTS,A,15
2,15,test,3,C,circle.png,0,z,Wed Oct 30 2024 13:15:10 GMT-0500 (Central Daylight Time),572912.3000000045,1700,I,m,1435,10,1,3161.7000000029802,569750.6000000015,8005,NTS,A,16
2,16,test,3,C,triangle.png,1,m,Wed Oct 30 2024 13:15:10 GMT-0500 (Central Daylight Time),575878.3999999985,2000,I,m,945,2,1,2962.1999999955297,572916.200000003,8005,NTS,A,17
7,17,test,3,C,triangle.png,1,z,Wed Oct 30 2024 13:15:10 GMT-0500 (Central Daylight Time),578494.1000000015,1700,I,z,895,6,1,2611.7000000029802,575882.3999999985,8005,NTS,A,18
3,18,test,3,C,circle.png,1,z,Wed Oct 30 2024 13:15:10 GMT-0500 (Central Daylight Time),581143.1000000015,1600,I,z,1019,11,1,2644.7999999970198,578498.3000000045,8005,NTS,A,19
1,19,test,3,C,triangle.png,1,z,Wed Oct 30 2024 13:15:10 GMT-0500 (Central Daylight Time),584292.3000000045,1900,I,z,1231,9,1,3145.4000000059605,581146.8999999985,8005,NTS,A,20
4,20,test,3,C,circle.png,1,z,Wed Oct 30 2024 13:15:10 GMT-0500 (Central Daylight Time),586408.200000003,1400,I,z,694,4,1,2112.3000000044703,584295.8999999985,8005,NTS,A,21
9,21,test,3,C,triangle.png,1,z,Wed Oct 30 2024 13:15:10 GMT-0500 (Central Daylight Time),588624.1000000015,1400,I,z,793,16,1,2211.89999999851,586412.200000003,8005,NTS,A,22
7,22,test,3,C,triangle.png,1,z,Wed Oct 30 2024 13:15:10 GMT-0500 (Central Daylight Time),591006.700000003,1700,I,z,663,22,1,2378.8000000044703,588627.8999999985,8005,NTS,A,23
4,23,test,3,C,triangle.png,1,m,Wed Oct 30 2024 13:15:10 GMT-0500 (Central Daylight Time),593172.8000000045,1500,I,m,639,12,1,2162.3000000044703,591010.5,8005,NTS,A,24
4,1,test,4,C,circle.png,1,z,Wed Oct 30 2024 13:15:10 GMT-0500 (Central Daylight Time),597571.3999999985,1400,I,z,940,4,1,2362.5999999940395,595208.8000000045,8005,NTS,A,1
6,2,test,4,C,triangle.png,1,m,Wed Oct 30 2024 13:15:10 GMT-0500 (Central Daylight Time),599271.0,1000,I,m,670,13,1,1695.8999999985099,597575.1000000015,8005,NTS,A,2
1,3,test,4,C,triangle.png,1,z,Wed Oct 30 2024 13:15:10 GMT-0500 (Central Daylight Time),601904.5,1900,I,z,711,9,1,2629.7999999970198,599274.700000003,8005,NTS,A,3
6,4,test,4,C,circle.png,1,m,Wed Oct 30 2024 13:15:10 GMT-0500 (Central Daylight Time),604685.8999999985,1900,I,m,862,5,1,2777.39999999851,601908.5,8005,NTS,A,4
3,5,test,4,C,triangle.png,1,z,Wed Oct 30 2024 13:15:10 GMT-0500 (Central Daylight Time),606551.8999999985,1200,I,z,643,3,1,1860.7999999970198,604691.1000000015,8005,NTS,A,5
4,6,test,4,C,triangle.png,1,m,Wed Oct 30 2024 13:15:10 GMT-0500 (Central Daylight Time),608834.6000000015,1500,I,m,766,12,1,2278.89999999851,606555.700000003,8005,NTS,A,6
2,7,test,4,C,circle.png,1,z,Wed Oct 30 2024 13:15:10 GMT-0500 (Central Daylight Time),611734.3000000045,1700,I,z,1179,10,1,2896.0,608838.3000000045,8005,NTS,A,7
7,8,test,4,C,triangle.png,1,z,Wed Oct 30 2024 13:15:10 GMT-0500 (Central Daylight Time),614682.6000000015,1700,I,z,1223,22,1,2944.60000000149,611738.0,8005,NTS,A,8
7,9,test,4,C,circle.png,1,m,Wed Oct 30 2024 13:15:10 GMT-0500 (Central Daylight Time),617633.0,2000,I,m,919,14,1,2946.60000000149,614686.3999999985,8005,NTS,A,9
2,10,test,4,C,triangle.png,1,m,Wed Oct 30 2024 13:15:10 GMT-0500 (Central Daylight Time),621081.8000000045,2000,I,m,1426,18,1,3444.9000000059605,617636.8999999985,8005,NTS,A,10
8,11,test,4,C,circle.png,1,m,Wed Oct 30 2024 13:15:10 GMT-0500 (Central Daylight Time),623030.1000000015,1200,I,m,729,15,1,1944.2999999970198,621085.8000000045,8005,NTS,A,11
3,12,test,4,C,circle.png,1,z,Wed Oct 30 2024 13:15:10 GMT-0500 (Central Daylight Time),625429.200000003,1600,I,z,772,11,1,2395.39999999851,623033.8000000045,8005,NTS,A,12
3,13,test,4,C,triangle.png,1,z,Wed Oct 30 2024 13:15:10 GMT-0500 (Central Daylight Time),627245.3999999985,1200,I,z,587,19,1,1810.8999999985099,625434.5,8005,NTS,A,13
9,14,test,4,C,triangle.png,1,z,Wed Oct 30 2024 13:15:10 GMT-0500 (Central Daylight Time),629594.5,1400,I,z,924,16,1,2345.0,627249.5,8005,NTS,A,14
7,15,test,4,C,triangle.png,1,z,Wed Oct 30 2024 13:15:10 GMT-0500 (Central Daylight Time),631927.5,1700,I,z,611,6,1,2329.1999999955297,629598.3000000045,8005,NTS,A,15
8,16,test,4,C,triangle.png,1,m,Wed Oct 30 2024 13:15:10 GMT-0500 (Central Daylight Time),634326.5,1600,I,m,778,23,1,2394.89999999851,631931.6000000015,8005,NTS,A,16
1,17,test,4,C,circle.png,1,z,Wed Oct 30 2024 13:15:10 GMT-0500 (Central Daylight Time),636059.1000000015,1000,I,z,715,17,1,1728.8999999985099,634330.200000003,8005,NTS,A,17
2,18,test,4,C,triangle.png,1,m,Wed Oct 30 2024 13:15:10 GMT-0500 (Central Daylight Time),639058.5,2000,I,m,982,2,1,2995.6999999955297,636062.8000000045,8005,NTS,A,18
8,19,test,4,C,triangle.png,1,m,Wed Oct 30 2024 13:15:10 GMT-0500 (Central Daylight Time),641424.3000000045,1600,I,m,742,7,1,2362.2000000029802,639062.1000000015,8005,NTS,A,19
4,20,test,4,C,circle.png,1,z,Wed Oct 30 2024 13:15:10 GMT-0500 (Central Daylight Time),644056.8999999985,1400,I,z,1209,20,1,2629.0,641427.8999999985,8005,NTS,A,20
9,21,test,4,C,circle.png,1,m,Wed Oct 30 2024 13:15:10 GMT-0500 (Central Daylight Time),646322.8999999985,1500,I,m,733,24,1,2262.2999999970198,644060.6000000015,8005,NTS,A,21
9,22,test,4,C,circle.png,1,m,Wed Oct 30 2024 13:15:10 GMT-0500 (Central Daylight Time),648355.200000003,1500,I,m,515,8,1,2028.5,646326.700000003,8005,NTS,A,22
6,23,test,4,C,circle.png,1,m,Wed Oct 30 2024 13:15:10 GMT-0500 (Central Daylight Time),651204.5,1900,I,m,922,21,1,2845.5,648359.0,8005,NTS,A,23
1,24,test,4,C,circle.png,1,z,Wed Oct 30 2024 13:15:10 GMT-0500 (Central Daylight Time),652770.8000000045,1000,I,z,550,1,1,1562.7000000029802,651208.1000000015,8005,NTS,A,24
