Number,acc_sum,block,block_c,block_cond,con_img,correct,correct_response,datetime,endtime,jitter,project,response,response_time,row_sel,session_number,start_end,starttime,subject_id,task,task_vers,trial
3,0,prac,1,A,circle.png,0,z,Thu Sep 05 2024 13:34:47 GMT-0500 (Central Daylight Time),66409.0,1200,O,None,1515,3,1,3493.399999976158,62915.60000002384,7001,NTS,A,1
6,1,prac,1,A,circle.png,1,m,Thu Sep 05 2024 13:34:47 GMT-0500 (Central Daylight Time),70108.19999992847,1900,O,m,1012,5,1,3693.2999999523163,66414.89999997616,7001,NTS,A,2
4,2,prac,1,A,circle.png,1,z,Thu Sep 05 2024 13:34:47 GMT-0500 (Central Daylight Time),73056.69999992847,1400,O,z,749,4,1,2942.7999999523163,70113.89999997616,7001,NTS,A,3
8,3,prac,1,A,circle.png,1,m,Thu Sep 05 2024 13:34:47 GMT-0500 (Central Daylight Time),75939.19999992847,1600,O,m,488,7,1,2876.5999999046326,73062.60000002384,7001,NTS,A,4
6,4,prac,1,A,circle.png,1,m,Thu Sep 05 2024 13:34:47 GMT-0500 (Central Daylight Time),79238.29999995232,1900,O,m,610,5,1,3294.0,75944.29999995232,7001,NTS,A,5
9,5,prac,1,A,circle.png,1,m,Thu Sep 05 2024 13:34:47 GMT-0500 (Central Daylight Time),82087.10000002384,1500,O,m,559,8,1,2843.3000000715256,79243.79999995232,7001,NTS,A,6
7,6,prac,1,A,circle.png,1,m,Thu Sep 05 2024 13:34:47 GMT-0500 (Central Daylight Time),85102.69999992847,1700,O,m,526,6,1,3010.399999976158,82092.29999995232,7001,NTS,A,7
7,7,prac,1,A,circle.png,1,m,Thu Sep 05 2024 13:34:47 GMT-0500 (Central Daylight Time),88136.60000002384,1700,O,m,542,6,1,3029.100000023842,85107.5,7001,NTS,A,8
3,8,prac,1,A,circle.png,1,z,Thu Sep 05 2024 13:34:47 GMT-0500 (Central Daylight Time),90567.89999997616,1200,O,z,442,3,1,2426.2000000476837,88141.69999992847,7001,NTS,A,9
2,9,prac,1,A,circle.png,1,z,Thu Sep 05 2024 13:34:47 GMT-0500 (Central Daylight Time),93850.29999995232,2000,O,z,497,2,1,3277.399999976158,90572.89999997616,7001,NTS,A,10
1,10,prac,1,A,circle.png,1,z,Thu Sep 05 2024 13:34:47 GMT-0500 (Central Daylight Time),96132.79999995232,1000,O,z,459,1,1,2277.0,93855.79999995232,7001,NTS,A,11
2,11,prac,1,A,circle.png,1,z,Thu Sep 05 2024 13:34:47 GMT-0500 (Central Daylight Time),99415.19999992847,2000,O,z,484,2,1,3277.0,96138.19999992847,7001,NTS,A,12
1,1,prac,1,B,triangle.png,1,z,Thu Sep 05 2024 13:34:47 GMT-0500 (Central Daylight Time),134737.60000002384,1900,O,z,832,1,1,3511.4000000953674,131226.19999992847,7001,NTS,A,1
9,2,prac,1,B,triangle.png,1,z,Thu Sep 05 2024 13:34:47 GMT-0500 (Central Daylight Time),137686.29999995232,1400,O,z,760,8,1,2943.399999976158,134742.89999997616,7001,NTS,A,2
6,3,prac,1,B,triangle.png,1,m,Thu Sep 05 2024 13:34:47 GMT-0500 (Central Daylight Time),140019.0,1000,O,m,539,5,1,2327.3000000715256,137691.69999992847,7001,NTS,A,3
7,4,prac,1,B,triangle.png,1,z,Thu Sep 05 2024 13:34:47 GMT-0500 (Central Daylight Time),143701.29999995232,2000,O,z,892,6,1,3677.600000023842,140023.69999992847,7001,NTS,A,4
2,5,prac,1,B,triangle.png,1,m,Thu Sep 05 2024 13:34:47 GMT-0500 (Central Daylight Time),147500.10000002384,1700,O,m,1312,2,1,3793.8000000715256,143706.29999995232,7001,NTS,A,5
1,6,prac,1,B,triangle.png,1,z,Thu Sep 05 2024 13:34:47 GMT-0500 (Central Daylight Time),150699.19999992847,1900,O,z,506,1,1,3194.2999999523163,147504.89999997616,7001,NTS,A,6
4,7,prac,1,B,triangle.png,1,m,Thu Sep 05 2024 13:34:47 GMT-0500 (Central Daylight Time),154264.69999992847,1500,O,m,1274,4,1,3560.399999976158,150704.29999995232,7001,NTS,A,7
8,8,prac,1,B,triangle.png,1,m,Thu Sep 05 2024 13:34:47 GMT-0500 (Central Daylight Time),156913.89999997616,1200,O,m,657,7,1,2644.5,154269.39999997616,7001,NTS,A,8
2,9,prac,1,B,triangle.png,1,m,Thu Sep 05 2024 13:34:47 GMT-0500 (Central Daylight Time),160062.60000002384,1700,O,m,652,2,1,3143.8000000715256,156918.79999995232,7001,NTS,A,9
9,10,prac,1,B,triangle.png,1,z,Thu Sep 05 2024 13:34:47 GMT-0500 (Central Daylight Time),163178.39999997616,1400,O,z,923,8,1,3110.2999999523163,160068.10000002384,7001,NTS,A,10
3,11,prac,1,B,triangle.png,1,z,Thu Sep 05 2024 13:34:47 GMT-0500 (Central Daylight Time),166677.5,1600,O,z,1103,3,1,3493.899999976158,163183.60000002384,7001,NTS,A,11
7,12,prac,1,B,triangle.png,1,z,Thu Sep 05 2024 13:34:47 GMT-0500 (Central Daylight Time),170009.5,2000,O,z,540,6,1,3327.2000000476837,166682.29999995232,7001,NTS,A,12
6,1,test,1,A,circle.png,1,m,Thu Sep 05 2024 13:34:47 GMT-0500 (Central Daylight Time),191753.0,1900,O,m,984,5,1,2910.8000000715256,188842.19999992847,7001,NTS,A,1
2,2,test,1,A,circle.png,1,z,Thu Sep 05 2024 13:34:47 GMT-0500 (Central Daylight Time),194302.10000002384,2000,O,z,520,2,1,2543.3000000715256,191758.79999995232,7001,NTS,A,2
4,2,test,1,A,circle.png,0,z,Thu Sep 05 2024 13:34:47 GMT-0500 (Central Daylight Time),197234.29999995232,1400,O,None,1515,4,1,2928.399999976158,194305.89999997616,7001,NTS,A,3
8,3,test,1,A,circle.png,1,m,Thu Sep 05 2024 13:34:47 GMT-0500 (Central Daylight Time),199367.0,1600,O,m,503,7,1,2128.899999976158,197238.10000002384,7001,NTS,A,4
9,4,test,1,A,circle.png,1,m,Thu Sep 05 2024 13:34:47 GMT-0500 (Central Daylight Time),201682.69999992847,1500,O,m,790,8,1,2312.1999999284744,199370.5,7001,NTS,A,5
1,5,test,1,A,circle.png,1,z,Thu Sep 05 2024 13:34:47 GMT-0500 (Central Daylight Time),203415.79999995232,1000,O,z,710,1,1,1729.6000000238419,201686.19999992847,7001,NTS,A,6
4,6,test,1,A,circle.png,1,z,Thu Sep 05 2024 13:34:47 GMT-0500 (Central Daylight Time),205498.19999992847,1400,O,z,666,4,1,2078.899999976158,203419.29999995232,7001,NTS,A,7
6,7,test,1,A,circle.png,1,m,Thu Sep 05 2024 13:34:47 GMT-0500 (Central Daylight Time),207897.5,1900,O,m,474,5,1,2395.899999976158,205501.60000002384,7001,NTS,A,8
7,8,test,1,A,circle.png,1,m,Thu Sep 05 2024 13:34:47 GMT-0500 (Central Daylight Time),210063.19999992847,1700,O,m,436,6,1,2162.1999999284744,207901.0,7001,NTS,A,9
3,9,test,1,A,circle.png,1,z,Thu Sep 05 2024 13:34:47 GMT-0500 (Central Daylight Time),212112.79999995232,1200,O,z,825,3,1,2045.8999999761581,210066.89999997616,7001,NTS,A,10
8,10,test,1,A,circle.png,1,m,Thu Sep 05 2024 13:34:47 GMT-0500 (Central Daylight Time),214212.10000002384,1600,O,m,481,7,1,2095.2000000476837,212116.89999997616,7001,NTS,A,11
9,11,test,1,A,circle.png,1,m,Thu Sep 05 2024 13:34:47 GMT-0500 (Central Daylight Time),216278.19999992847,1500,O,m,537,8,1,2061.6999999284744,214216.5,7001,NTS,A,12
3,12,test,1,A,circle.png,1,z,Thu Sep 05 2024 13:34:47 GMT-0500 (Central Daylight Time),218094.19999992847,1200,O,z,586,3,1,1812.1999999284744,216282.0,7001,NTS,A,13
7,13,test,1,A,circle.png,1,m,Thu Sep 05 2024 13:34:47 GMT-0500 (Central Daylight Time),220393.5,1700,O,m,567,6,1,2295.399999976158,218098.10000002384,7001,NTS,A,14
6,14,test,1,A,circle.png,1,m,Thu Sep 05 2024 13:34:47 GMT-0500 (Central Daylight Time),222926.0,1900,O,m,603,5,1,2528.5,220397.5,7001,NTS,A,15
1,15,test,1,A,circle.png,1,z,Thu Sep 05 2024 13:34:47 GMT-0500 (Central Daylight Time),224892.19999992847,1000,O,z,947,1,1,1962.3999999761581,222929.79999995232,7001,NTS,A,16
4,16,test,1,A,circle.png,1,z,Thu Sep 05 2024 13:34:47 GMT-0500 (Central Daylight Time),227158.10000002384,1400,O,z,845,4,1,2262.4000000953674,224895.69999992847,7001,NTS,A,17
9,17,test,1,A,circle.png,1,m,Thu Sep 05 2024 13:34:47 GMT-0500 (Central Daylight Time),229240.79999995232,1500,O,m,559,8,1,2079.0,227161.79999995232,7001,NTS,A,18
2,18,test,1,A,circle.png,1,z,Thu Sep 05 2024 13:34:47 GMT-0500 (Central Daylight Time),231673.5,2000,O,z,409,2,1,2429.2000000476837,229244.29999995232,7001,NTS,A,19
6,19,test,1,A,circle.png,1,m,Thu Sep 05 2024 13:34:47 GMT-0500 (Central Daylight Time),234122.60000002384,1900,O,m,524,5,1,2445.600000023842,231677.0,7001,NTS,A,20
8,20,test,1,A,circle.png,1,m,Thu Sep 05 2024 13:34:47 GMT-0500 (Central Daylight Time),236264.29999995232,1600,O,m,525,7,1,2138.0,234126.29999995232,7001,NTS,A,21
1,21,test,1,A,circle.png,1,z,Thu Sep 05 2024 13:34:47 GMT-0500 (Central Daylight Time),238004.79999995232,1000,O,z,730,1,1,1736.1000000238419,236268.69999992847,7001,NTS,A,22
7,22,test,1,A,circle.png,1,m,Thu Sep 05 2024 13:34:47 GMT-0500 (Central Daylight Time),240254.0,1700,O,m,528,6,1,2245.399999976158,238008.60000002384,7001,NTS,A,23
8,23,test,1,A,circle.png,1,m,Thu Sep 05 2024 13:34:47 GMT-0500 (Central Daylight Time),242386.69999992847,1600,O,m,507,7,1,2129.1999999284744,240257.5,7001,NTS,A,24
9,1,test,1,B,triangle.png,1,z,Thu Sep 05 2024 13:34:47 GMT-0500 (Central Daylight Time),259398.0,1400,O,z,629,8,1,2046.3000000715256,257351.69999992847,7001,NTS,A,1
2,2,test,1,B,triangle.png,1,m,Thu Sep 05 2024 13:34:47 GMT-0500 (Central Daylight Time),261530.60000002384,1700,O,m,415,2,1,2128.3000000715256,259402.29999995232,7001,NTS,A,2
2,3,test,1,B,triangle.png,1,m,Thu Sep 05 2024 13:34:47 GMT-0500 (Central Daylight Time),263396.7999999523,1200,O,m,639,10,1,1862.8999999761581,261533.89999997616,7001,NTS,A,3
1,4,test,1,B,triangle.png,1,z,Thu Sep 05 2024 13:34:47 GMT-0500 (Central Daylight Time),265829.1999999285,1900,O,z,513,1,1,2428.399999976158,263400.7999999523,7001,NTS,A,4
1,5,test,1,B,triangle.png,1,z,Thu Sep 05 2024 13:34:47 GMT-0500 (Central Daylight Time),267762.10000002384,1400,O,z,516,9,1,1929.3000000715256,265832.7999999523,7001,NTS,A,5
4,6,test,1,B,triangle.png,1,m,Thu Sep 05 2024 13:34:47 GMT-0500 (Central Daylight Time),270061.1999999285,1500,O,m,771,4,1,2295.899999976158,267765.2999999523,7001,NTS,A,6
8,7,test,1,B,triangle.png,1,m,Thu Sep 05 2024 13:34:47 GMT-0500 (Central Daylight Time),271877.39999997616,1200,O,m,588,7,1,1812.5,270064.89999997616,7001,NTS,A,7
6,8,test,1,B,triangle.png,1,m,Thu Sep 05 2024 13:34:47 GMT-0500 (Central Daylight Time),273893.5,1500,O,m,488,13,1,2012.5,271881.0,7001,NTS,A,8
3,9,test,1,B,triangle.png,1,z,Thu Sep 05 2024 13:34:47 GMT-0500 (Central Daylight Time),275993.0,1600,O,z,468,3,1,2095.899999976158,273897.10000002384,7001,NTS,A,9
6,10,test,1,B,triangle.png,1,m,Thu Sep 05 2024 13:34:47 GMT-0500 (Central Daylight Time),277992.10000002384,1500,O,m,477,13,1,1995.2000000476837,275996.89999997616,7001,NTS,A,10
4,11,test,1,B,triangle.png,1,m,Thu Sep 05 2024 13:34:47 GMT-0500 (Central Daylight Time),280191.5,1000,O,m,1169,12,1,2195.600000023842,277995.89999997616,7001,NTS,A,11
3,12,test,1,B,triangle.png,1,z,Thu Sep 05 2024 13:34:47 GMT-0500 (Central Daylight Time),282690.60000002384,2000,O,z,482,11,1,2495.3000000715256,280195.2999999523,7001,NTS,A,12
6,13,test,1,B,triangle.png,1,m,Thu Sep 05 2024 13:34:47 GMT-0500 (Central Daylight Time),284390.10000002384,1000,O,m,679,5,1,1696.1000000238419,282694.0,7001,NTS,A,13
7,14,test,1,B,triangle.png,1,z,Thu Sep 05 2024 13:34:47 GMT-0500 (Central Daylight Time),286956.0,2000,O,z,539,6,1,2562.0,284394.0,7001,NTS,A,14
4,15,test,1,B,triangle.png,1,m,Thu Sep 05 2024 13:34:47 GMT-0500 (Central Daylight Time),289588.60000002384,1500,O,m,1113,4,1,2628.9000000953674,286959.6999999285,7001,NTS,A,15
9,16,test,1,B,triangle.png,1,z,Thu Sep 05 2024 13:34:47 GMT-0500 (Central Daylight Time),291621.2999999523,1400,O,z,613,8,1,2029.1000000238419,289592.1999999285,7001,NTS,A,16
2,17,test,1,B,triangle.png,1,m,Thu Sep 05 2024 13:34:47 GMT-0500 (Central Daylight Time),293520.6999999285,1200,O,m,668,10,1,1895.7999999523163,291624.89999997616,7001,NTS,A,17
6,18,test,1,B,triangle.png,1,m,Thu Sep 05 2024 13:34:47 GMT-0500 (Central Daylight Time),295069.89999997616,1000,O,m,528,5,1,1545.6000000238419,293524.2999999523,7001,NTS,A,18
8,19,test,1,B,triangle.png,1,m,Thu Sep 05 2024 13:34:47 GMT-0500 (Central Daylight Time),297252.5,1700,O,m,463,15,1,2178.899999976158,295073.60000002384,7001,NTS,A,19
9,20,test,1,B,triangle.png,1,z,Thu Sep 05 2024 13:34:47 GMT-0500 (Central Daylight Time),299735.2999999523,1900,O,z,561,16,1,2479.1999999284744,297256.10000002384,7001,NTS,A,20
7,21,test,1,B,triangle.png,1,z,Thu Sep 05 2024 13:34:47 GMT-0500 (Central Daylight Time),301868.10000002384,1600,O,z,506,14,1,2129.0,299739.10000002384,7001,NTS,A,21
8,22,test,1,B,triangle.png,1,m,Thu Sep 05 2024 13:34:47 GMT-0500 (Central Daylight Time),303733.89999997616,1200,O,m,637,7,1,1862.1000000238419,301871.7999999523,7001,NTS,A,22
1,23,test,1,B,triangle.png,1,z,Thu Sep 05 2024 13:34:47 GMT-0500 (Central Daylight Time),305700.1999999285,1400,O,z,547,9,1,1962.5,303737.6999999285,7001,NTS,A,23
4,24,test,1,B,triangle.png,1,m,Thu Sep 05 2024 13:34:47 GMT-0500 (Central Daylight Time),307316.1999999285,1000,O,m,550,12,1,1612.3999999761581,305703.7999999523,7001,NTS,A,24
9,0,prac,1,C,circle.png,0,m,Thu Sep 05 2024 13:34:47 GMT-0500 (Central Daylight Time),351302.6999999285,1900,O,z,1260,8,1,3942.1999999284744,347360.5,7001,NTS,A,1
2,1,prac,1,C,triangle.png,1,m,Thu Sep 05 2024 13:34:47 GMT-0500 (Central Daylight Time),354969.2999999523,1600,O,m,1275,2,1,3661.100000023842,351308.1999999285,7001,NTS,A,2
6,2,prac,1,C,circle.png,1,m,Thu Sep 05 2024 13:34:47 GMT-0500 (Central Daylight Time),359100.0,2000,O,m,1346,5,1,4124.300000071526,354975.6999999285,7001,NTS,A,3
6,3,prac,1,C,circle.png,1,m,Thu Sep 05 2024 13:34:47 GMT-0500 (Central Daylight Time),362848.89999997616,2000,O,m,957,5,1,3743.2000000476837,359105.6999999285,7001,NTS,A,4
3,4,prac,1,C,triangle.png,1,z,Thu Sep 05 2024 13:34:47 GMT-0500 (Central Daylight Time),365797.89999997616,1500,O,z,652,3,1,2944.100000023842,362853.7999999523,7001,NTS,A,5
7,5,prac,1,C,triangle.png,1,z,Thu Sep 05 2024 13:34:47 GMT-0500 (Central Daylight Time),369246.7999999523,1200,O,z,1459,6,1,3444.0,365802.7999999523,7001,NTS,A,6
8,6,prac,1,C,triangle.png,1,m,Thu Sep 05 2024 13:34:47 GMT-0500 (Central Daylight Time),372779.10000002384,1400,O,m,1347,7,1,3527.3000000715256,369251.7999999523,7001,NTS,A,7
1,7,prac,1,C,circle.png,1,z,Thu Sep 05 2024 13:34:47 GMT-0500 (Central Daylight Time),376628.0,1700,O,z,1354,1,1,3844.100000023842,372783.89999997616,7001,NTS,A,8
4,8,prac,1,C,circle.png,1,z,Thu Sep 05 2024 13:34:47 GMT-0500 (Central Daylight Time),379143.6999999285,1000,O,z,717,4,1,2510.899999976158,376632.7999999523,7001,NTS,A,9
9,9,prac,1,C,circle.png,1,m,Thu Sep 05 2024 13:34:47 GMT-0500 (Central Daylight Time),382609.1999999285,1900,O,m,774,8,1,3460.6999999284744,379148.5,7001,NTS,A,10
1,10,prac,1,C,circle.png,1,z,Thu Sep 05 2024 13:34:47 GMT-0500 (Central Daylight Time),385975.0,1700,O,z,876,1,1,3361.0,382614.0,7001,NTS,A,11
3,10,prac,1,C,triangle.png,0,z,Thu Sep 05 2024 13:34:47 GMT-0500 (Central Daylight Time),389773.60000002384,1500,O,None,1516,3,1,3793.9000000953674,385979.6999999285,7001,NTS,A,12
8,1,test,1,C,triangle.png,1,m,Thu Sep 05 2024 13:34:47 GMT-0500 (Central Daylight Time),407001.39999997616,1600,O,m,1350,7,1,2979.2999999523163,404022.10000002384,7001,NTS,A,1
8,2,test,1,C,triangle.png,1,m,Thu Sep 05 2024 13:34:47 GMT-0500 (Central Daylight Time),409267.5,1600,O,m,648,23,1,2261.899999976158,407005.60000002384,7001,NTS,A,2
7,3,test,1,C,circle.png,1,m,Thu Sep 05 2024 13:34:47 GMT-0500 (Central Daylight Time),412466.60000002384,2000,O,m,1175,14,1,3195.3000000715256,409271.2999999523,7001,NTS,A,3
9,4,test,1,C,triangle.png,1,z,Thu Sep 05 2024 13:34:47 GMT-0500 (Central Daylight Time),415182.10000002384,1400,O,z,1287,16,1,2711.8000000715256,412470.2999999523,7001,NTS,A,4
1,5,test,1,C,triangle.png,1,z,Thu Sep 05 2024 13:34:47 GMT-0500 (Central Daylight Time),418364.7999999523,1900,O,z,1263,17,1,3178.899999976158,415185.89999997616,7001,NTS,A,5
1,5,test,1,C,circle.png,0,z,Thu Sep 05 2024 13:34:47 GMT-0500 (Central Daylight Time),420897.10000002384,1000,O,None,1516,1,1,2528.2000000476837,418368.89999997616,7001,NTS,A,6
9,6,test,1,C,circle.png,1,m,Thu Sep 05 2024 13:34:47 GMT-0500 (Central Daylight Time),423196.5,1500,O,m,780,24,1,2295.5,420901.0,7001,NTS,A,7
3,7,test,1,C,triangle.png,1,z,Thu Sep 05 2024 13:34:47 GMT-0500 (Central Daylight Time),425595.6999999285,1200,O,z,1069,3,1,2395.5,423200.1999999285,7001,NTS,A,8
8,8,test,1,C,circle.png,1,m,Thu Sep 05 2024 13:34:47 GMT-0500 (Central Daylight Time),428261.5,1200,O,m,1446,15,1,2662.100000023842,425599.39999997616,7001,NTS,A,9
2,8,test,1,C,circle.png,0,z,Thu Sep 05 2024 13:34:47 GMT-0500 (Central Daylight Time),431410.39999997616,1700,O,m,1432,10,1,3145.2000000476837,428265.1999999285,7001,NTS,A,10
3,9,test,1,C,circle.png,1,z,Thu Sep 05 2024 13:34:47 GMT-0500 (Central Daylight Time),434126.10000002384,1600,O,z,1087,19,1,2711.9000000953674,431414.1999999285,7001,NTS,A,11
9,9,test,1,C,circle.png,0,m,Thu Sep 05 2024 13:34:47 GMT-0500 (Central Daylight Time),437158.6999999285,1500,O,None,1515,8,1,3028.7999999523163,434129.89999997616,7001,NTS,A,12
3,10,test,1,C,circle.png,1,z,Thu Sep 05 2024 13:34:47 GMT-0500 (Central Daylight Time),439691.10000002384,1600,O,z,907,11,1,2528.9000000953674,437162.1999999285,7001,NTS,A,13
4,10,test,1,C,triangle.png,0,m,Thu Sep 05 2024 13:34:47 GMT-0500 (Central Daylight Time),442256.89999997616,1500,O,z,1042,12,1,2561.899999976158,439695.0,7001,NTS,A,14
2,10,test,1,C,triangle.png,0,m,Thu Sep 05 2024 13:34:47 GMT-0500 (Central Daylight Time),445789.1999999285,2000,O,None,1516,2,1,3528.6999999284744,442260.5,7001,NTS,A,15
4,11,test,1,C,circle.png,1,z,Thu Sep 05 2024 13:34:47 GMT-0500 (Central Daylight Time),448371.39999997616,1400,O,z,1156,4,1,2578.2000000476837,445793.1999999285,7001,NTS,A,16
2,12,test,1,C,circle.png,1,z,Thu Sep 05 2024 13:34:47 GMT-0500 (Central Daylight Time),450854.2999999523,1700,O,z,754,18,1,2479.2999999523163,448375.0,7001,NTS,A,17
6,13,test,1,C,triangle.png,1,m,Thu Sep 05 2024 13:34:47 GMT-0500 (Central Daylight Time),452987.0,1000,O,m,1107,13,1,2128.899999976158,450858.10000002384,7001,NTS,A,18
1,14,test,1,C,triangle.png,1,z,Thu Sep 05 2024 13:34:47 GMT-0500 (Central Daylight Time),455552.6999999285,1900,O,z,643,9,1,2561.899999976158,452990.7999999523,7001,NTS,A,19
7,15,test,1,C,triangle.png,1,z,Thu Sep 05 2024 13:34:47 GMT-0500 (Central Daylight Time),458351.7999999523,1700,O,z,1069,6,1,2795.399999976158,455556.39999997616,7001,NTS,A,20
7,16,test,1,C,triangle.png,1,z,Thu Sep 05 2024 13:34:47 GMT-0500 (Central Daylight Time),460817.89999997616,1700,O,z,734,22,1,2462.5,458355.39999997616,7001,NTS,A,21
6,17,test,1,C,circle.png,1,m,Thu Sep 05 2024 13:34:47 GMT-0500 (Central Daylight Time),464067.89999997616,1900,O,m,1324,21,1,3246.100000023842,460821.7999999523,7001,NTS,A,22
6,18,test,1,C,circle.png,1,m,Thu Sep 05 2024 13:34:47 GMT-0500 (Central Daylight Time),466965.89999997616,1900,O,m,971,5,1,2891.7999999523163,464074.10000002384,7001,NTS,A,23
4,19,test,1,C,triangle.png,1,m,Thu Sep 05 2024 13:34:47 GMT-0500 (Central Daylight Time),469765.0,1500,O,m,1279,20,1,2795.3000000715256,466969.6999999285,7001,NTS,A,24
8,1,test,2,C,circle.png,1,m,Thu Sep 05 2024 13:34:47 GMT-0500 (Central Daylight Time),474997.0,1200,O,m,1488,15,1,2712.899999976158,472284.10000002384,7001,NTS,A,1
9,2,test,2,C,triangle.png,1,z,Thu Sep 05 2024 13:34:47 GMT-0500 (Central Daylight Time),477812.7999999523,1400,O,z,1389,16,1,2812.0,475000.7999999523,7001,NTS,A,2
8,3,test,2,C,circle.png,1,m,Thu Sep 05 2024 13:34:47 GMT-0500 (Central Daylight Time),479962.0,1200,O,m,933,23,1,2145.600000023842,477816.39999997616,7001,NTS,A,3
8,3,test,2,C,triangle.png,0,m,Thu Sep 05 2024 13:34:47 GMT-0500 (Central Daylight Time),483094.1999999285,1600,O,None,1516,7,1,3128.399999976158,479965.7999999523,7001,NTS,A,4
9,4,test,2,C,circle.png,1,m,Thu Sep 05 2024 13:34:47 GMT-0500 (Central Daylight Time),486110.2999999523,1500,O,m,1487,8,1,3012.2999999523163,483098.0,7001,NTS,A,5
4,5,test,2,C,triangle.png,1,m,Thu Sep 05 2024 13:34:47 GMT-0500 (Central Daylight Time),488575.7999999523,1500,O,m,936,12,1,2462.0,486113.7999999523,7001,NTS,A,6
3,6,test,2,C,circle.png,1,z,Thu Sep 05 2024 13:34:47 GMT-0500 (Central Daylight Time),491325.10000002384,1600,O,z,1122,19,1,2745.7000000476837,488579.39999997616,7001,NTS,A,7
6,7,test,2,C,triangle.png,1,m,Thu Sep 05 2024 13:34:47 GMT-0500 (Central Daylight Time),493674.1999999285,1000,O,m,1332,13,1,2345.5,491328.6999999285,7001,NTS,A,8
3,8,test,2,C,circle.png,1,z,Thu Sep 05 2024 13:34:47 GMT-0500 (Central Daylight Time),496006.6999999285,1600,O,z,701,11,1,2329.0,493677.6999999285,7001,NTS,A,9
4,9,test,2,C,circle.png,1,z,Thu Sep 05 2024 13:34:47 GMT-0500 (Central Daylight Time),498239.5,1400,O,z,803,4,1,2229.0,496010.5,7001,NTS,A,10
7,10,test,2,C,circle.png,1,m,Thu Sep 05 2024 13:34:47 GMT-0500 (Central Daylight Time),501188.60000002384,2000,O,m,930,14,1,2945.4000000953674,498243.1999999285,7001,NTS,A,11
4,11,test,2,C,triangle.png,1,m,Thu Sep 05 2024 13:34:47 GMT-0500 (Central Daylight Time),503837.7999999523,1500,O,m,1129,20,1,2645.7999999523163,501192.0,7001,NTS,A,12
2,12,test,2,C,circle.png,1,z,Thu Sep 05 2024 13:34:47 GMT-0500 (Central Daylight Time),506636.6999999285,1700,O,z,1072,10,1,2795.2999999523163,503841.39999997616,7001,NTS,A,13
2,13,test,2,C,circle.png,1,z,Thu Sep 05 2024 13:34:47 GMT-0500 (Central Daylight Time),509136.10000002384,1700,O,z,769,18,1,2495.8000000715256,506640.2999999523,7001,NTS,A,14
1,14,test,2,C,triangle.png,1,z,Thu Sep 05 2024 13:34:47 GMT-0500 (Central Daylight Time),511985.10000002384,1900,O,z,917,17,1,2845.2000000476837,509139.89999997616,7001,NTS,A,15
1,15,test,2,C,circle.png,1,z,Thu Sep 05 2024 13:34:47 GMT-0500 (Central Daylight Time),514101.10000002384,1000,O,z,1096,1,1,2112.600000023842,511988.5,7001,NTS,A,16
2,15,test,2,C,triangle.png,0,m,Thu Sep 05 2024 13:34:47 GMT-0500 (Central Daylight Time),517633.5,2000,O,None,1515,2,1,3528.0,514105.5,7001,NTS,A,17
3,16,test,2,C,triangle.png,1,z,Thu Sep 05 2024 13:34:47 GMT-0500 (Central Daylight Time),519782.39999997616,1200,O,z,894,3,1,2145.0,517637.39999997616,7001,NTS,A,18
1,17,test,2,C,triangle.png,1,z,Thu Sep 05 2024 13:34:47 GMT-0500 (Central Daylight Time),522815.0,1900,O,z,1111,9,1,3028.399999976158,519786.60000002384,7001,NTS,A,19
6,18,test,2,C,triangle.png,1,m,Thu Sep 05 2024 13:34:47 GMT-0500 (Central Daylight Time),525097.7999999523,1000,O,m,1250,21,1,2279.1999999284744,522818.60000002384,7001,NTS,A,20
7,19,test,2,C,circle.png,1,m,Thu Sep 05 2024 13:34:47 GMT-0500 (Central Daylight Time),527896.7999999523,2000,O,m,768,22,1,2795.600000023842,525101.1999999285,7001,NTS,A,21
7,20,test,2,C,triangle.png,1,z,Thu Sep 05 2024 13:34:47 GMT-0500 (Central Daylight Time),530696.0,1700,O,z,1069,6,1,2795.7000000476837,527900.2999999523,7001,NTS,A,22
6,21,test,2,C,circle.png,1,m,Thu Sep 05 2024 13:34:47 GMT-0500 (Central Daylight Time),533378.5,1900,O,m,766,5,1,2678.5,530700.0,7001,NTS,A,23
9,22,test,2,C,triangle.png,1,z,Thu Sep 05 2024 13:34:47 GMT-0500 (Central Daylight Time),535894.1999999285,1400,O,z,1087,24,1,2512.2999999523163,533381.8999999762,7001,NTS,A,24
8,1,test,3,C,triangle.png,1,m,Thu Sep 05 2024 13:34:47 GMT-0500 (Central Daylight Time),542025.6999999285,1600,O,m,1117,23,1,2746.0999999046326,539279.6000000238,7001,NTS,A,1
4,2,test,3,C,circle.png,1,z,Thu Sep 05 2024 13:34:47 GMT-0500 (Central Daylight Time),544591.6000000238,1400,O,z,1144,4,1,2562.2000000476837,542029.3999999762,7001,NTS,A,2
3,3,test,3,C,triangle.png,1,z,Thu Sep 05 2024 13:34:47 GMT-0500 (Central Daylight Time),546941.0,1200,O,z,1130,3,1,2345.7000000476837,544595.2999999523,7001,NTS,A,3
3,4,test,3,C,triangle.png,1,z,Thu Sep 05 2024 13:34:47 GMT-0500 (Central Daylight Time),548723.6999999285,1200,O,z,565,19,1,1779.0,546944.6999999285,7001,NTS,A,4
2,5,test,3,C,triangle.png,1,m,Thu Sep 05 2024 13:34:47 GMT-0500 (Central Daylight Time),552022.5,2000,O,m,1278,2,1,3295.3000000715256,548727.1999999285,7001,NTS,A,5
8,6,test,3,C,triangle.png,1,m,Thu Sep 05 2024 13:34:47 GMT-0500 (Central Daylight Time),554438.1000000238,1600,O,m,795,7,1,2411.9000000953674,552026.1999999285,7001,NTS,A,6
3,7,test,3,C,circle.png,1,z,Thu Sep 05 2024 13:34:47 GMT-0500 (Central Daylight Time),557187.5,1600,O,z,1131,11,1,2745.8000000715256,554441.6999999285,7001,NTS,A,7
6,8,test,3,C,triangle.png,1,m,Thu Sep 05 2024 13:34:47 GMT-0500 (Central Daylight Time),559287.0,1000,O,m,1070,13,1,2094.399999976158,557192.6000000238,7001,NTS,A,8
4,9,test,3,C,circle.png,1,z,Thu Sep 05 2024 13:34:47 GMT-0500 (Central Daylight Time),561586.0,1400,O,z,875,20,1,2295.600000023842,559290.3999999762,7001,NTS,A,9
1,10,test,3,C,circle.png,1,z,Thu Sep 05 2024 13:34:47 GMT-0500 (Central Daylight Time),563518.8999999762,1000,O,z,911,17,1,1929.2999999523163,561589.6000000238,7001,NTS,A,10
4,11,test,3,C,triangle.png,1,m,Thu Sep 05 2024 13:34:47 GMT-0500 (Central Daylight Time),566184.6999999285,1500,O,m,1143,12,1,2662.5,563522.1999999285,7001,NTS,A,11
6,12,test,3,C,circle.png,1,m,Thu Sep 05 2024 13:34:47 GMT-0500 (Central Daylight Time),569416.8999999762,1900,O,m,1301,5,1,3228.7000000476837,566188.1999999285,7001,NTS,A,12
8,13,test,3,C,circle.png,1,m,Thu Sep 05 2024 13:34:47 GMT-0500 (Central Daylight Time),571449.6999999285,1200,O,m,800,15,1,2029.2999999523163,569420.3999999762,7001,NTS,A,13
9,13,test,3,C,triangle.png,0,z,Thu Sep 05 2024 13:34:47 GMT-0500 (Central Daylight Time),574382.3999999762,1400,O,None,1516,16,1,2929.2999999523163,571453.1000000238,7001,NTS,A,14
1,14,test,3,C,circle.png,1,z,Thu Sep 05 2024 13:34:47 GMT-0500 (Central Daylight Time),576698.1000000238,1000,O,z,1299,1,1,2312.2000000476837,574385.8999999762,7001,NTS,A,15
7,14,test,3,C,circle.png,0,m,Thu Sep 05 2024 13:34:47 GMT-0500 (Central Daylight Time),580230.2999999523,2000,O,None,1516,14,1,3528.899999976158,576701.3999999762,7001,NTS,A,16
9,15,test,3,C,circle.png,1,m,Thu Sep 05 2024 13:34:47 GMT-0500 (Central Daylight Time),582880.6000000238,1500,O,m,1126,8,1,2646.8000000715256,580233.7999999523,7001,NTS,A,17
2,16,test,3,C,triangle.png,1,m,Thu Sep 05 2024 13:34:47 GMT-0500 (Central Daylight Time),586294.8999999762,2000,O,m,1394,18,1,3410.7000000476837,582884.1999999285,7001,NTS,A,18
6,17,test,3,C,circle.png,1,m,Thu Sep 05 2024 13:34:47 GMT-0500 (Central Daylight Time),589094.1000000238,1900,O,m,879,21,1,2795.2000000476837,586298.8999999762,7001,NTS,A,19
1,18,test,3,C,triangle.png,1,z,Thu Sep 05 2024 13:34:47 GMT-0500 (Central Daylight Time),592209.8999999762,1900,O,z,1191,9,1,3112.0,589097.8999999762,7001,NTS,A,20
9,19,test,3,C,circle.png,1,m,Thu Sep 05 2024 13:34:47 GMT-0500 (Central Daylight Time),594692.3999999762,1500,O,m,956,24,1,2479.0,592213.3999999762,7001,NTS,A,21
7,20,test,3,C,triangle.png,1,z,Thu Sep 05 2024 13:34:47 GMT-0500 (Central Daylight Time),597774.8999999762,1700,O,z,1361,22,1,3078.899999976158,594696.0,7001,NTS,A,22
7,21,test,3,C,triangle.png,1,z,Thu Sep 05 2024 13:34:47 GMT-0500 (Central Daylight Time),600140.6999999285,1700,O,z,639,6,1,2362.5999999046326,597778.1000000238,7001,NTS,A,23
2,22,test,3,C,circle.png,1,z,Thu Sep 05 2024 13:34:47 GMT-0500 (Central Daylight Time),602922.8999999762,1700,O,z,1065,10,1,2778.600000023842,600144.2999999523,7001,NTS,A,24
6,1,test,4,C,circle.png,1,m,Thu Sep 05 2024 13:34:47 GMT-0500 (Central Daylight Time),609204.5,1900,O,m,656,5,1,2579.3000000715256,606625.1999999285,7001,NTS,A,1
2,2,test,4,C,triangle.png,1,m,Thu Sep 05 2024 13:34:47 GMT-0500 (Central Daylight Time),612270.2999999523,2000,O,m,1045,2,1,3061.7999999523163,609208.5,7001,NTS,A,2
7,3,test,4,C,triangle.png,1,z,Thu Sep 05 2024 13:34:47 GMT-0500 (Central Daylight Time),615286.1999999285,1700,O,z,1287,22,1,3012.2999999523163,612273.8999999762,7001,NTS,A,3
8,4,test,4,C,triangle.png,1,m,Thu Sep 05 2024 13:34:47 GMT-0500 (Central Daylight Time),617601.8999999762,1600,O,m,691,23,1,2312.100000023842,615289.7999999523,7001,NTS,A,4
8,5,test,4,C,triangle.png,1,m,Thu Sep 05 2024 13:34:47 GMT-0500 (Central Daylight Time),620017.7999999523,1600,O,m,784,7,1,2412.1999999284744,617605.6000000238,7001,NTS,A,5
3,6,test,4,C,triangle.png,1,z,Thu Sep 05 2024 13:34:47 GMT-0500 (Central Daylight Time),622150.5,1200,O,z,904,3,1,2129.100000023842,620021.3999999762,7001,NTS,A,6
7,7,test,4,C,triangle.png,1,z,Thu Sep 05 2024 13:34:47 GMT-0500 (Central Daylight Time),625116.2999999523,1700,O,z,1239,6,1,2961.5,622154.7999999523,7001,NTS,A,7
6,8,test,4,C,triangle.png,1,m,Thu Sep 05 2024 13:34:47 GMT-0500 (Central Daylight Time),626965.6000000238,1000,O,m,829,13,1,1845.8000000715256,625119.7999999523,7001,NTS,A,8
2,9,test,4,C,triangle.png,1,m,Thu Sep 05 2024 13:34:47 GMT-0500 (Central Daylight Time),630181.2999999523,2000,O,m,1196,18,1,3212.2999999523163,626969.0,7001,NTS,A,9
4,10,test,4,C,triangle.png,1,m,Thu Sep 05 2024 13:34:47 GMT-0500 (Central Daylight Time),633030.1000000238,1500,O,m,1328,12,1,2843.7000000476837,630186.3999999762,7001,NTS,A,10
1,11,test,4,C,triangle.png,1,z,Thu Sep 05 2024 13:34:47 GMT-0500 (Central Daylight Time),635812.6999999285,1900,O,z,855,9,1,2778.5999999046326,633034.1000000238,7001,NTS,A,11
1,12,test,4,C,circle.png,1,z,Thu Sep 05 2024 13:34:47 GMT-0500 (Central Daylight Time),637762.1000000238,1000,O,z,933,1,1,1945.7000000476837,635816.3999999762,7001,NTS,A,12
3,13,test,4,C,triangle.png,1,z,Thu Sep 05 2024 13:34:47 GMT-0500 (Central Daylight Time),640128.2999999523,1200,O,z,1143,19,1,2361.5,637766.7999999523,7001,NTS,A,13
1,14,test,4,C,circle.png,1,z,Thu Sep 05 2024 13:34:47 GMT-0500 (Central Daylight Time),642260.6999999285,1000,O,z,1104,17,1,2128.6999999284744,640132.0,7001,NTS,A,14
9,15,test,4,C,circle.png,1,m,Thu Sep 05 2024 13:34:47 GMT-0500 (Central Daylight Time),644443.1999999285,1500,O,m,665,8,1,2179.0,642264.1999999285,7001,NTS,A,15
2,16,test,4,C,circle.png,1,z,Thu Sep 05 2024 13:34:47 GMT-0500 (Central Daylight Time),646942.6000000238,1700,O,z,770,10,1,2495.5,644447.1000000238,7001,NTS,A,16
8,17,test,4,C,circle.png,1,m,Thu Sep 05 2024 13:34:47 GMT-0500 (Central Daylight Time),648742.0,1200,O,m,571,15,1,1795.5,646946.5,7001,NTS,A,17
7,18,test,4,C,circle.png,1,m,Thu Sep 05 2024 13:34:47 GMT-0500 (Central Daylight Time),651941.1000000238,2000,O,m,1172,14,1,3195.5,648745.6000000238,7001,NTS,A,18
4,19,test,4,C,circle.png,1,z,Thu Sep 05 2024 13:34:47 GMT-0500 (Central Daylight Time),654273.6999999285,1400,O,z,908,20,1,2329.0999999046326,651944.6000000238,7001,NTS,A,19
9,20,test,4,C,circle.png,1,m,Thu Sep 05 2024 13:34:47 GMT-0500 (Central Daylight Time),656422.8999999762,1500,O,m,620,24,1,2145.7000000476837,654277.1999999285,7001,NTS,A,20
9,21,test,4,C,triangle.png,1,z,Thu Sep 05 2024 13:34:47 GMT-0500 (Central Daylight Time),658755.5,1400,O,z,907,16,1,2329.3000000715256,656426.1999999285,7001,NTS,A,21
6,22,test,4,C,circle.png,1,m,Thu Sep 05 2024 13:34:47 GMT-0500 (Central Daylight Time),661687.8999999762,1900,O,m,1010,21,1,2928.7999999523163,658759.1000000238,7001,NTS,A,22
4,23,test,4,C,circle.png,1,z,Thu Sep 05 2024 13:34:47 GMT-0500 (Central Daylight Time),663753.8999999762,1400,O,z,642,4,1,2062.399999976158,661691.5,7001,NTS,A,23
3,24,test,4,C,circle.png,1,z,Thu Sep 05 2024 13:34:47 GMT-0500 (Central Daylight Time),666836.2999999523,1600,O,z,1464,11,1,3078.899999976158,663757.3999999762,7001,NTS,A,24
