Number,acc_sum,block,block_c,block_cond,con_img,correct,correct_response,datetime,endtime,jitter,project,response,response_time,row_sel,session_number,start_end,starttime,subject_id,task,task_vers,trial
9,1,prac,1,A,circle.png,1,m,Fri Jan 17 2025 12:32:05 GMT-0500 (Eastern Standard Time),447654.0999984741,1500,I,m,692,8,3,2978.599998474121,444675.5,9002,NTS,B,1
2,2,prac,1,A,circle.png,1,z,Fri Jan 17 2025 12:32:05 GMT-0500 (Eastern Standard Time),451087.5,2000,I,z,615,2,3,3417.0,447670.5,9002,NTS,B,2
2,3,prac,1,A,circle.png,1,z,Fri Jan 17 2025 12:32:05 GMT-0500 (Eastern Standard Time),454753.79999923706,2000,I,z,879,2,3,3654.7000007629395,451099.0999984741,9002,NTS,B,3
7,4,prac,1,A,circle.png,1,m,Fri Jan 17 2025 12:32:05 GMT-0500 (Eastern Standard Time),457737.0,1700,I,m,489,6,3,2971.6000003814697,454765.39999961853,9002,NTS,B,4
8,5,prac,1,A,circle.png,1,m,Fri Jan 17 2025 12:32:05 GMT-0500 (Eastern Standard Time),461003.6999988556,1600,I,m,870,7,3,3255.0,457748.6999988556,9002,NTS,B,5
1,6,prac,1,A,circle.png,1,z,Fri Jan 17 2025 12:32:05 GMT-0500 (Eastern Standard Time),464004.0999984741,1000,I,z,1214,1,3,2987.7999992370605,461016.29999923706,9002,NTS,B,6
4,6,prac,1,A,circle.png,0,z,Fri Jan 17 2025 12:32:05 GMT-0500 (Eastern Standard Time),466970.39999961853,1400,I,m,771,4,3,2955.0,464015.39999961853,9002,NTS,B,7
7,7,prac,1,A,circle.png,1,m,Fri Jan 17 2025 12:32:05 GMT-0500 (Eastern Standard Time),470753.79999923706,1700,I,m,1281,6,3,3771.7999992370605,466982.0,9002,NTS,B,8
6,8,prac,1,A,circle.png,1,m,Fri Jan 17 2025 12:32:05 GMT-0500 (Eastern Standard Time),474420.1999988556,1900,I,m,977,5,3,3657.0,470763.1999988556,9002,NTS,B,9
8,9,prac,1,A,circle.png,1,m,Fri Jan 17 2025 12:32:05 GMT-0500 (Eastern Standard Time),477387.29999923706,1600,I,m,573,7,3,2958.7000007629395,474428.5999984741,9002,NTS,B,10
1,10,prac,1,A,circle.png,1,z,Fri Jan 17 2025 12:32:05 GMT-0500 (Eastern Standard Time),479920.79999923706,1000,I,z,732,1,3,2522.7000007629395,477398.0999984741,9002,NTS,B,11
3,11,prac,1,A,circle.png,1,z,Fri Jan 17 2025 12:32:05 GMT-0500 (Eastern Standard Time),482437.5999984741,1200,I,z,527,3,3,2506.5,479931.0999984741,9002,NTS,B,12
3,1,prac,1,B,triangle.png,1,z,Fri Jan 17 2025 12:32:05 GMT-0500 (Eastern Standard Time),503920.5999984741,1600,I,z,950,3,3,3340.0,500580.5999984741,9002,NTS,B,1
2,2,prac,1,B,triangle.png,1,m,Fri Jan 17 2025 12:32:05 GMT-0500 (Eastern Standard Time),507087.29999923706,1700,I,m,668,2,3,3156.3999996185303,503930.89999961853,9002,NTS,B,2
9,3,prac,1,B,triangle.png,1,z,Fri Jan 17 2025 12:32:05 GMT-0500 (Eastern Standard Time),510370.79999923706,1400,I,z,1099,8,3,3273.2000007629395,507097.5999984741,9002,NTS,B,3
2,4,prac,1,B,triangle.png,1,m,Fri Jan 17 2025 12:32:05 GMT-0500 (Eastern Standard Time),513403.89999961853,1700,I,m,539,2,3,3022.6000003814697,510381.29999923706,9002,NTS,B,4
1,5,prac,1,B,triangle.png,1,z,Fri Jan 17 2025 12:32:05 GMT-0500 (Eastern Standard Time),516721.0999984741,1900,I,z,617,1,3,3307.3999996185303,513413.6999988556,9002,NTS,B,5
4,6,prac,1,B,triangle.png,1,m,Fri Jan 17 2025 12:32:05 GMT-0500 (Eastern Standard Time),519803.79999923706,1500,I,m,788,4,3,3074.3999996185303,516729.39999961853,9002,NTS,B,6
8,7,prac,1,B,triangle.png,1,m,Fri Jan 17 2025 12:32:05 GMT-0500 (Eastern Standard Time),522504.0999984741,1200,I,m,709,7,3,2692.2999992370605,519811.79999923706,9002,NTS,B,7
7,8,prac,1,B,triangle.png,1,z,Fri Jan 17 2025 12:32:05 GMT-0500 (Eastern Standard Time),526420.5,2000,I,z,1130,6,3,3904.0,522516.5,9002,NTS,B,8
9,9,prac,1,B,triangle.png,1,z,Fri Jan 17 2025 12:32:05 GMT-0500 (Eastern Standard Time),529487.1999988556,1400,I,z,868,8,3,3055.1000003814697,526432.0999984741,9002,NTS,B,9
6,10,prac,1,B,triangle.png,1,m,Fri Jan 17 2025 12:32:05 GMT-0500 (Eastern Standard Time),532020.7999992371,1000,I,m,744,5,3,2522.0,529498.7999992371,9002,NTS,B,10
7,11,prac,1,B,triangle.png,1,z,Fri Jan 17 2025 12:32:05 GMT-0500 (Eastern Standard Time),535653.8999996185,2000,I,z,844,6,3,3622.1000003814697,532031.7999992371,9002,NTS,B,11
6,12,prac,1,B,triangle.png,1,m,Fri Jan 17 2025 12:32:05 GMT-0500 (Eastern Standard Time),538304.0,1000,I,m,851,5,3,2637.5,535666.5,9002,NTS,B,12
7,1,test,1,A,circle.png,1,m,Fri Jan 17 2025 12:32:05 GMT-0500 (Eastern Standard Time),613420.7999992371,1700,I,m,954,6,3,2677.8999996185303,610742.8999996185,9002,NTS,B,1
3,2,test,1,A,circle.png,1,z,Fri Jan 17 2025 12:32:05 GMT-0500 (Eastern Standard Time),615420.5,1200,I,z,770,3,3,1989.7000007629395,613430.7999992371,9002,NTS,B,2
4,2,test,1,A,circle.png,0,z,Fri Jan 17 2025 12:32:05 GMT-0500 (Eastern Standard Time),617670.5,1400,I,m,826,4,3,2243.1000003814697,615427.3999996185,9002,NTS,B,3
9,3,test,1,A,circle.png,1,m,Fri Jan 17 2025 12:32:05 GMT-0500 (Eastern Standard Time),620204.1999988556,1500,I,m,1005,8,3,2525.199998855591,617679.0,9002,NTS,B,4
8,4,test,1,A,circle.png,1,m,Fri Jan 17 2025 12:32:05 GMT-0500 (Eastern Standard Time),622704.0999984741,1600,I,m,865,7,3,2491.5,620212.5999984741,9002,NTS,B,5
3,5,test,1,A,circle.png,1,z,Fri Jan 17 2025 12:32:05 GMT-0500 (Eastern Standard Time),624654.0999984741,1200,I,z,720,3,3,1941.0,622713.0999984741,9002,NTS,B,6
6,6,test,1,A,circle.png,1,m,Fri Jan 17 2025 12:32:05 GMT-0500 (Eastern Standard Time),627387.5,1900,I,m,806,5,3,2724.0,624663.5,9002,NTS,B,7
3,7,test,1,A,circle.png,1,z,Fri Jan 17 2025 12:32:05 GMT-0500 (Eastern Standard Time),629287.2999992371,1200,I,z,678,3,3,1890.7000007629395,627396.5999984741,9002,NTS,B,8
6,8,test,1,A,circle.png,1,m,Fri Jan 17 2025 12:32:05 GMT-0500 (Eastern Standard Time),631870.7999992371,1900,I,m,652,5,3,2575.2000007629395,629295.5999984741,9002,NTS,B,9
9,9,test,1,A,circle.png,1,m,Fri Jan 17 2025 12:32:05 GMT-0500 (Eastern Standard Time),634387.3999996185,1500,I,m,981,8,3,2504.300001144409,631883.0999984741,9002,NTS,B,10
6,10,test,1,A,circle.png,1,m,Fri Jan 17 2025 12:32:05 GMT-0500 (Eastern Standard Time),637220.3999996185,1900,I,m,913,5,3,2824.3999996185303,634396.0,9002,NTS,B,11
8,11,test,1,A,circle.png,1,m,Fri Jan 17 2025 12:32:05 GMT-0500 (Eastern Standard Time),639537.1999988556,1600,I,m,667,7,3,2303.3999996185303,637233.7999992371,9002,NTS,B,12
7,12,test,1,A,circle.png,1,m,Fri Jan 17 2025 12:32:05 GMT-0500 (Eastern Standard Time),642004.0999984741,1700,I,m,748,6,3,2458.2999992370605,639545.7999992371,9002,NTS,B,13
2,13,test,1,A,circle.png,1,z,Fri Jan 17 2025 12:32:05 GMT-0500 (Eastern Standard Time),644653.8999996185,2000,I,z,619,2,3,2642.1000003814697,642011.7999992371,9002,NTS,B,14
4,14,test,1,A,circle.png,1,z,Fri Jan 17 2025 12:32:05 GMT-0500 (Eastern Standard Time),646887.0999984741,1400,I,z,812,4,3,2225.0,644662.0999984741,9002,NTS,B,15
8,15,test,1,A,circle.png,1,m,Fri Jan 17 2025 12:32:05 GMT-0500 (Eastern Standard Time),649204.1999988556,1600,I,m,698,7,3,2308.3999996185303,646895.7999992371,9002,NTS,B,16
2,16,test,1,A,circle.png,1,z,Fri Jan 17 2025 12:32:05 GMT-0500 (Eastern Standard Time),652004.1999988556,2000,I,z,780,2,3,2792.2999992370605,649211.8999996185,9002,NTS,B,17
7,17,test,1,A,circle.png,1,m,Fri Jan 17 2025 12:32:05 GMT-0500 (Eastern Standard Time),654387.3999996185,1700,I,m,648,6,3,2375.300001144409,652012.0999984741,9002,NTS,B,18
1,18,test,1,A,circle.png,1,z,Fri Jan 17 2025 12:32:05 GMT-0500 (Eastern Standard Time),656086.5999984741,1000,I,z,676,1,3,1690.7999992370605,654395.7999992371,9002,NTS,B,19
3,19,test,1,A,circle.png,1,z,Fri Jan 17 2025 12:32:05 GMT-0500 (Eastern Standard Time),657887.2999992371,1200,I,z,570,3,3,1795.1000003814697,656092.1999988556,9002,NTS,B,20
1,20,test,1,A,circle.png,1,z,Fri Jan 17 2025 12:32:05 GMT-0500 (Eastern Standard Time),659537.1999988556,1000,I,z,617,1,3,1641.1000003814697,657896.0999984741,9002,NTS,B,21
9,21,test,1,A,circle.png,1,m,Fri Jan 17 2025 12:32:05 GMT-0500 (Eastern Standard Time),661887.0,1500,I,m,818,8,3,2341.400001525879,659545.5999984741,9002,NTS,B,22
4,22,test,1,A,circle.png,1,z,Fri Jan 17 2025 12:32:05 GMT-0500 (Eastern Standard Time),664003.6999988556,1400,I,z,694,4,3,2111.8999996185303,661891.7999992371,9002,NTS,B,23
4,23,test,1,A,circle.png,1,z,Fri Jan 17 2025 12:32:05 GMT-0500 (Eastern Standard Time),666053.6999988556,1400,I,z,627,4,3,2042.7999992370605,664010.8999996185,9002,NTS,B,24
2,1,test,1,B,triangle.png,1,m,Fri Jan 17 2025 12:32:05 GMT-0500 (Eastern Standard Time),680220.8999996185,1700,I,m,955,2,3,2675.6000003814697,677545.2999992371,9002,NTS,B,1
9,2,test,1,B,triangle.png,1,z,Fri Jan 17 2025 12:32:05 GMT-0500 (Eastern Standard Time),683204.2999992371,1900,I,z,1064,16,3,2974.8999996185303,680229.3999996185,9002,NTS,B,2
8,3,test,1,B,triangle.png,1,m,Fri Jan 17 2025 12:32:05 GMT-0500 (Eastern Standard Time),685487.0999984741,1200,I,m,1051,7,3,2275.2999992370605,683211.7999992371,9002,NTS,B,3
4,4,test,1,B,triangle.png,1,m,Fri Jan 17 2025 12:32:05 GMT-0500 (Eastern Standard Time),687420.8999996185,1000,I,m,905,12,3,1928.3999996185303,685492.5,9002,NTS,B,4
4,5,test,1,B,triangle.png,1,m,Fri Jan 17 2025 12:32:05 GMT-0500 (Eastern Standard Time),689620.3999996185,1500,I,m,680,4,3,2190.2000007629395,687430.1999988556,9002,NTS,B,5
1,6,test,1,B,triangle.png,1,z,Fri Jan 17 2025 12:32:05 GMT-0500 (Eastern Standard Time),691903.7999992371,1400,I,z,851,9,3,2274.1000003814697,689629.6999988556,9002,NTS,B,6
2,7,test,1,B,triangle.png,1,m,Fri Jan 17 2025 12:32:05 GMT-0500 (Eastern Standard Time),693737.5,1200,I,m,608,10,3,1825.6000003814697,691911.8999996185,9002,NTS,B,7
2,8,test,1,B,triangle.png,1,m,Fri Jan 17 2025 12:32:05 GMT-0500 (Eastern Standard Time),695987.0999984741,1200,I,m,1014,10,3,2240.599998474121,693746.5,9002,NTS,B,8
2,9,test,1,B,triangle.png,1,m,Fri Jan 17 2025 12:32:05 GMT-0500 (Eastern Standard Time),698404.0,1700,I,m,681,2,3,2410.800001144409,695993.1999988556,9002,NTS,B,9
9,10,test,1,B,triangle.png,1,z,Fri Jan 17 2025 12:32:05 GMT-0500 (Eastern Standard Time),701270.7999992371,1400,I,z,1445,8,3,2859.1000003814697,698411.6999988556,9002,NTS,B,10
8,11,test,1,B,triangle.png,1,m,Fri Jan 17 2025 12:32:05 GMT-0500 (Eastern Standard Time),704220.5,1700,I,m,1222,15,3,2942.2000007629395,701278.2999992371,9002,NTS,B,11
7,12,test,1,B,triangle.png,1,z,Fri Jan 17 2025 12:32:05 GMT-0500 (Eastern Standard Time),706554.0999984741,1600,I,z,709,14,3,2328.599998474121,704225.5,9002,NTS,B,12
7,13,test,1,B,triangle.png,1,z,Fri Jan 17 2025 12:32:05 GMT-0500 (Eastern Standard Time),709587.2999992371,2000,I,z,998,6,3,3020.2000007629395,706567.0999984741,9002,NTS,B,13
4,14,test,1,B,triangle.png,1,m,Fri Jan 17 2025 12:32:05 GMT-0500 (Eastern Standard Time),711437.5999984741,1000,I,m,805,12,3,1835.5,709602.0999984741,9002,NTS,B,14
6,15,test,1,B,triangle.png,1,m,Fri Jan 17 2025 12:32:05 GMT-0500 (Eastern Standard Time),713337.5,1000,I,m,875,5,3,1891.900001525879,711445.5999984741,9002,NTS,B,15
3,16,test,1,B,triangle.png,1,z,Fri Jan 17 2025 12:32:05 GMT-0500 (Eastern Standard Time),716070.0,2000,I,z,710,11,3,2724.300001144409,713345.6999988556,9002,NTS,B,16
7,17,test,1,B,triangle.png,1,z,Fri Jan 17 2025 12:32:05 GMT-0500 (Eastern Standard Time),718837.1999988556,2000,I,z,746,6,3,2762.0,716075.1999988556,9002,NTS,B,17
3,18,test,1,B,triangle.png,1,z,Fri Jan 17 2025 12:32:05 GMT-0500 (Eastern Standard Time),721104.0,1600,I,z,635,3,3,2253.6000003814697,718850.3999996185,9002,NTS,B,18
9,19,test,1,B,triangle.png,1,z,Fri Jan 17 2025 12:32:05 GMT-0500 (Eastern Standard Time),723637.2999992371,1900,I,z,612,16,3,2523.1000003814697,721114.1999988556,9002,NTS,B,19
1,20,test,1,B,triangle.png,1,z,Fri Jan 17 2025 12:32:05 GMT-0500 (Eastern Standard Time),726154.0999984741,1900,I,z,591,1,3,2508.0,723646.0999984741,9002,NTS,B,20
3,21,test,1,B,triangle.png,1,z,Fri Jan 17 2025 12:32:05 GMT-0500 (Eastern Standard Time),728904.0999984741,2000,I,z,726,11,3,2740.0,726164.0999984741,9002,NTS,B,21
6,22,test,1,B,triangle.png,1,m,Fri Jan 17 2025 12:32:05 GMT-0500 (Eastern Standard Time),731187.0,1500,I,m,747,13,3,2274.5,728912.5,9002,NTS,B,22
1,23,test,1,B,triangle.png,1,z,Fri Jan 17 2025 12:32:05 GMT-0500 (Eastern Standard Time),733337.5,1400,I,z,725,9,3,2143.6000003814697,731193.8999996185,9002,NTS,B,23
6,24,test,1,B,triangle.png,1,m,Fri Jan 17 2025 12:32:05 GMT-0500 (Eastern Standard Time),735737.5,1500,I,m,875,13,3,2390.0,733347.5,9002,NTS,B,24
9,0,prac,1,C,circle.png,0,m,Fri Jan 17 2025 12:32:05 GMT-0500 (Eastern Standard Time),786420.8999996185,1900,I,None,1513,8,3,4189.89999961853,782231.0,9002,NTS,B,1
6,1,prac,1,C,circle.png,1,m,Fri Jan 17 2025 12:32:05 GMT-0500 (Eastern Standard Time),790204.2999992371,2000,I,m,987,5,3,3770.3999996185303,786433.8999996185,9002,NTS,B,2
6,2,prac,1,C,circle.png,1,m,Fri Jan 17 2025 12:32:05 GMT-0500 (Eastern Standard Time),793987.6999988556,2000,I,m,997,5,3,3772.3999996185303,790215.2999992371,9002,NTS,B,3
1,3,prac,1,C,circle.png,1,z,Fri Jan 17 2025 12:32:05 GMT-0500 (Eastern Standard Time),797570.8999996185,1700,I,z,1081,1,3,3572.800001144409,793998.0999984741,9002,NTS,B,4
4,3,prac,1,C,circle.png,0,z,Fri Jan 17 2025 12:32:05 GMT-0500 (Eastern Standard Time),800271.0,1000,I,m,901,4,3,2687.7000007629395,797583.2999992371,9002,NTS,B,5
9,4,prac,1,C,circle.png,1,m,Fri Jan 17 2025 12:32:05 GMT-0500 (Eastern Standard Time),803837.5,1900,I,m,868,8,3,3556.7000007629395,800280.7999992371,9002,NTS,B,6
7,5,prac,1,C,triangle.png,1,z,Fri Jan 17 2025 12:32:05 GMT-0500 (Eastern Standard Time),807054.1999988556,1200,I,z,1218,6,3,3206.7999992370605,803847.3999996185,9002,NTS,B,7
3,6,prac,1,C,triangle.png,1,z,Fri Jan 17 2025 12:32:05 GMT-0500 (Eastern Standard Time),810537.6999988556,1500,I,z,1189,3,3,3472.1000003814697,807065.5999984741,9002,NTS,B,8
2,6,prac,1,C,triangle.png,0,m,Fri Jan 17 2025 12:32:05 GMT-0500 (Eastern Standard Time),814437.1999988556,1600,I,None,1514,2,3,3888.7999992370605,810548.3999996185,9002,NTS,B,9
8,6,prac,1,C,triangle.png,0,m,Fri Jan 17 2025 12:32:05 GMT-0500 (Eastern Standard Time),818137.5,1400,I,None,1514,7,3,3692.6000003814697,814444.8999996185,9002,NTS,B,10
2,7,prac,1,C,triangle.png,1,m,Fri Jan 17 2025 12:32:05 GMT-0500 (Eastern Standard Time),821504.3999996185,1600,I,m,966,2,3,3355.8999996185303,818148.5,9002,NTS,B,11
3,8,prac,1,C,triangle.png,1,z,Fri Jan 17 2025 12:32:05 GMT-0500 (Eastern Standard Time),824954.2999992371,1500,I,z,1156,3,3,3438.7000007629395,821515.5999984741,9002,NTS,B,12
2,0,test,1,C,circle.png,0,z,Fri Jan 17 2025 12:32:05 GMT-0500 (Eastern Standard Time),859804.1999988556,1700,I,m,1088,18,3,2808.2999992370605,856995.8999996185,9002,NTS,B,1
2,1,test,1,C,triangle.png,1,m,Fri Jan 17 2025 12:32:05 GMT-0500 (Eastern Standard Time),863154.3999996185,2000,I,m,1316,2,3,3341.7000007629395,859812.6999988556,9002,NTS,B,2
4,2,test,1,C,triangle.png,1,m,Fri Jan 17 2025 12:32:05 GMT-0500 (Eastern Standard Time),865904.3999996185,1500,I,m,1218,20,3,2741.7000007629395,863162.6999988556,9002,NTS,B,3
7,3,test,1,C,circle.png,1,m,Fri Jan 17 2025 12:32:05 GMT-0500 (Eastern Standard Time),869320.7999992371,2000,I,m,1392,14,3,3407.8999996185303,865912.8999996185,9002,NTS,B,4
2,4,test,1,C,circle.png,1,z,Fri Jan 17 2025 12:32:05 GMT-0500 (Eastern Standard Time),871937.5999984741,1700,I,z,867,10,3,2603.3999996185303,869334.1999988556,9002,NTS,B,5
4,5,test,1,C,circle.png,1,z,Fri Jan 17 2025 12:32:05 GMT-0500 (Eastern Standard Time),874404.2999992371,1400,I,z,1032,4,3,2458.3999996185303,871945.8999996185,9002,NTS,B,6
1,6,test,1,C,triangle.png,1,z,Fri Jan 17 2025 12:32:05 GMT-0500 (Eastern Standard Time),877704.2999992371,1900,I,z,1376,9,3,3286.3999996185303,874417.8999996185,9002,NTS,B,7
4,7,test,1,C,triangle.png,1,m,Fri Jan 17 2025 12:32:05 GMT-0500 (Eastern Standard Time),880487.6999988556,1500,I,m,1260,12,3,2771.8999996185303,877715.7999992371,9002,NTS,B,8
3,8,test,1,C,circle.png,1,z,Fri Jan 17 2025 12:32:05 GMT-0500 (Eastern Standard Time),883054.0999984741,1600,I,z,938,11,3,2557.7999992370605,880496.2999992371,9002,NTS,B,9
6,9,test,1,C,triangle.png,1,m,Fri Jan 17 2025 12:32:05 GMT-0500 (Eastern Standard Time),885454.2999992371,1000,I,m,1370,13,3,2391.5,883062.7999992371,9002,NTS,B,10
1,10,test,1,C,triangle.png,1,z,Fri Jan 17 2025 12:32:05 GMT-0500 (Eastern Standard Time),888754.0,1900,I,z,1366,17,3,3291.900001525879,885462.0999984741,9002,NTS,B,11
8,11,test,1,C,circle.png,1,m,Fri Jan 17 2025 12:32:05 GMT-0500 (Eastern Standard Time),891071.0999984741,1200,I,m,1086,15,3,2308.3999996185303,888762.6999988556,9002,NTS,B,12
8,11,test,1,C,triangle.png,0,m,Fri Jan 17 2025 12:32:05 GMT-0500 (Eastern Standard Time),894204.3999996185,1600,I,None,1513,23,3,3123.800001144409,891080.5999984741,9002,NTS,B,13
7,12,test,1,C,triangle.png,1,z,Fri Jan 17 2025 12:32:05 GMT-0500 (Eastern Standard Time),897220.6999988556,1700,I,z,1296,22,3,3007.199998855591,894213.5,9002,NTS,B,14
1,13,test,1,C,circle.png,1,z,Fri Jan 17 2025 12:32:05 GMT-0500 (Eastern Standard Time),899420.8999996185,1000,I,z,1171,1,3,2192.800001144409,897228.0999984741,9002,NTS,B,15
6,14,test,1,C,circle.png,1,m,Fri Jan 17 2025 12:32:05 GMT-0500 (Eastern Standard Time),902571.0,1900,I,m,1207,5,3,3135.5,899435.5,9002,NTS,B,16
9,15,test,1,C,circle.png,1,m,Fri Jan 17 2025 12:32:05 GMT-0500 (Eastern Standard Time),905137.5999984741,1500,I,m,1033,24,3,2558.199998855591,902579.3999996185,9002,NTS,B,17
7,15,test,1,C,triangle.png,0,z,Fri Jan 17 2025 12:32:05 GMT-0500 (Eastern Standard Time),908370.8999996185,1700,I,None,1515,6,3,3222.800001144409,905148.0999984741,9002,NTS,B,18
6,16,test,1,C,circle.png,1,m,Fri Jan 17 2025 12:32:05 GMT-0500 (Eastern Standard Time),911671.0,1900,I,m,1377,21,3,3291.7000007629395,908379.2999992371,9002,NTS,B,19
3,17,test,1,C,triangle.png,1,z,Fri Jan 17 2025 12:32:05 GMT-0500 (Eastern Standard Time),913987.5999984741,1200,I,z,1065,3,3,2303.2999992370605,911684.2999992371,9002,NTS,B,20
9,18,test,1,C,circle.png,1,m,Fri Jan 17 2025 12:32:05 GMT-0500 (Eastern Standard Time),916587.7999992371,1500,I,m,1073,8,3,2591.6000003814697,913996.1999988556,9002,NTS,B,21
9,19,test,1,C,triangle.png,1,z,Fri Jan 17 2025 12:32:05 GMT-0500 (Eastern Standard Time),919087.6999988556,1400,I,z,1069,16,3,2490.699998855591,916597.0,9002,NTS,B,22
3,19,test,1,C,circle.png,0,z,Fri Jan 17 2025 12:32:05 GMT-0500 (Eastern Standard Time),922187.6999988556,1600,I,m,1473,19,3,3091.199998855591,919096.5,9002,NTS,B,23
8,20,test,1,C,triangle.png,1,m,Fri Jan 17 2025 12:32:05 GMT-0500 (Eastern Standard Time),925187.6999988556,1600,I,m,1365,7,3,2991.2999992370605,922196.3999996185,9002,NTS,B,24
6,0,test,2,C,triangle.png,0,m,Fri Jan 17 2025 12:32:05 GMT-0500 (Eastern Standard Time),933237.2999992371,1000,I,z,1062,21,3,2079.0,931158.2999992371,9002,NTS,B,1
2,1,test,2,C,circle.png,1,z,Fri Jan 17 2025 12:32:05 GMT-0500 (Eastern Standard Time),936021.1999988556,1700,I,z,1048,18,3,2776.3999996185303,933244.7999992371,9002,NTS,B,2
7,1,test,2,C,circle.png,0,m,Fri Jan 17 2025 12:32:05 GMT-0500 (Eastern Standard Time),939554.2999992371,2000,I,None,1513,14,3,3519.1000003814697,936035.1999988556,9002,NTS,B,3
1,1,test,2,C,circle.png,0,z,Fri Jan 17 2025 12:32:05 GMT-0500 (Eastern Standard Time),941787.7999992371,1000,I,m,1206,1,3,2224.0,939563.7999992371,9002,NTS,B,4
7,2,test,2,C,triangle.png,1,z,Fri Jan 17 2025 12:32:05 GMT-0500 (Eastern Standard Time),944787.6999988556,1700,I,z,1265,6,3,2989.5,941798.1999988556,9002,NTS,B,5
9,3,test,2,C,circle.png,1,m,Fri Jan 17 2025 12:32:05 GMT-0500 (Eastern Standard Time),947487.6999988556,1500,I,m,1168,8,3,2689.0,944798.6999988556,9002,NTS,B,6
6,4,test,2,C,circle.png,1,m,Fri Jan 17 2025 12:32:05 GMT-0500 (Eastern Standard Time),950521.0999984741,1900,I,m,1108,5,3,3023.7999992370605,947497.2999992371,9002,NTS,B,7
1,5,test,2,C,triangle.png,1,z,Fri Jan 17 2025 12:32:05 GMT-0500 (Eastern Standard Time),953204.3999996185,1900,I,z,747,9,3,2674.1000003814697,950530.2999992371,9002,NTS,B,8
3,6,test,2,C,circle.png,1,z,Fri Jan 17 2025 12:32:05 GMT-0500 (Eastern Standard Time),955654.0999984741,1600,I,z,828,11,3,2441.099998474121,953213.0,9002,NTS,B,9
8,7,test,2,C,triangle.png,1,m,Fri Jan 17 2025 12:32:05 GMT-0500 (Eastern Standard Time),958204.2999992371,1600,I,m,922,7,3,2541.3999996185303,955662.8999996185,9002,NTS,B,10
4,7,test,2,C,circle.png,0,z,Fri Jan 17 2025 12:32:05 GMT-0500 (Eastern Standard Time),961071.0,1400,I,m,1437,4,3,2856.2000007629395,958214.7999992371,9002,NTS,B,11
9,8,test,2,C,triangle.png,1,z,Fri Jan 17 2025 12:32:05 GMT-0500 (Eastern Standard Time),963921.0999984741,1400,I,z,1417,16,3,2839.599998474121,961081.5,9002,NTS,B,12
2,9,test,2,C,circle.png,1,z,Fri Jan 17 2025 12:32:05 GMT-0500 (Eastern Standard Time),966854.0,1700,I,z,1211,10,3,2918.800001144409,963935.1999988556,9002,NTS,B,13
7,9,test,2,C,circle.png,0,m,Fri Jan 17 2025 12:32:05 GMT-0500 (Eastern Standard Time),970387.6999988556,2000,I,None,1515,22,3,3525.5,966862.1999988556,9002,NTS,B,14
3,10,test,2,C,circle.png,1,z,Fri Jan 17 2025 12:32:05 GMT-0500 (Eastern Standard Time),972820.7999992371,1600,I,z,814,19,3,2424.7000007629395,970396.0999984741,9002,NTS,B,15
1,11,test,2,C,triangle.png,1,z,Fri Jan 17 2025 12:32:05 GMT-0500 (Eastern Standard Time),975921.0,1900,I,z,1167,17,3,3092.900001525879,972828.0999984741,9002,NTS,B,16
8,12,test,2,C,circle.png,1,m,Fri Jan 17 2025 12:32:05 GMT-0500 (Eastern Standard Time),977854.5,1200,I,m,705,23,3,1924.6000003814697,975929.8999996185,9002,NTS,B,17
4,12,test,2,C,triangle.png,0,m,Fri Jan 17 2025 12:32:05 GMT-0500 (Eastern Standard Time),980537.7999992371,1500,I,z,1159,20,3,2674.5,977863.2999992371,9002,NTS,B,18
6,13,test,2,C,triangle.png,1,m,Fri Jan 17 2025 12:32:05 GMT-0500 (Eastern Standard Time),982454.2999992371,1000,I,m,894,13,3,1907.6000003814697,980546.6999988556,9002,NTS,B,19
3,14,test,2,C,triangle.png,1,z,Fri Jan 17 2025 12:32:05 GMT-0500 (Eastern Standard Time),984454.2999992371,1200,I,z,778,3,3,1990.6000003814697,982463.6999988556,9002,NTS,B,20
8,15,test,2,C,circle.png,1,m,Fri Jan 17 2025 12:32:05 GMT-0500 (Eastern Standard Time),986587.6999988556,1200,I,m,906,15,3,2124.8999996185303,984462.7999992371,9002,NTS,B,21
4,16,test,2,C,triangle.png,1,m,Fri Jan 17 2025 12:32:05 GMT-0500 (Eastern Standard Time),989087.5999984741,1500,I,m,968,12,3,2486.699998855591,986600.8999996185,9002,NTS,B,22
2,17,test,2,C,triangle.png,1,m,Fri Jan 17 2025 12:32:05 GMT-0500 (Eastern Standard Time),992271.0,2000,I,m,1154,2,3,3173.800001144409,989097.1999988556,9002,NTS,B,23
9,17,test,2,C,triangle.png,0,z,Fri Jan 17 2025 12:32:05 GMT-0500 (Eastern Standard Time),994720.6999988556,1400,I,m,1002,24,3,2436.199998855591,992284.5,9002,NTS,B,24
1,1,test,3,C,circle.png,1,z,Fri Jan 17 2025 12:32:05 GMT-0500 (Eastern Standard Time),1002788.0,1000,I,z,914,1,3,1942.5,1000845.5,9002,NTS,B,1
1,2,test,3,C,circle.png,1,z,Fri Jan 17 2025 12:32:05 GMT-0500 (Eastern Standard Time),1004971.1999988556,1000,I,z,1156,17,3,2173.1000003814697,1002798.0999984741,9002,NTS,B,2
1,3,test,3,C,triangle.png,1,z,Fri Jan 17 2025 12:32:05 GMT-0500 (Eastern Standard Time),1007937.7999992371,1900,I,z,1033,9,3,2957.7000007629395,1004980.0999984741,9002,NTS,B,3
2,3,test,3,C,triangle.png,0,m,Fri Jan 17 2025 12:32:05 GMT-0500 (Eastern Standard Time),1011471.0999984741,2000,I,None,1513,2,3,3523.099998474121,1007948.0,9002,NTS,B,4
6,3,test,3,C,triangle.png,0,m,Fri Jan 17 2025 12:32:05 GMT-0500 (Eastern Standard Time),1014004.0,1000,I,None,1513,13,3,2523.900001525879,1011480.0999984741,9002,NTS,B,5
4,4,test,3,C,triangle.png,1,m,Fri Jan 17 2025 12:32:05 GMT-0500 (Eastern Standard Time),1016937.5,1500,I,m,1408,12,3,2927.1000003814697,1014010.3999996185,9002,NTS,B,6
3,4,test,3,C,circle.png,0,z,Fri Jan 17 2025 12:32:05 GMT-0500 (Eastern Standard Time),1020071.0999984741,1600,I,None,1513,11,3,3127.2999992370605,1016943.7999992371,9002,NTS,B,7
7,5,test,3,C,circle.png,1,m,Fri Jan 17 2025 12:32:05 GMT-0500 (Eastern Standard Time),1023054.5,2000,I,m,954,14,3,2974.5,1020080.0,9002,NTS,B,8
6,6,test,3,C,circle.png,1,m,Fri Jan 17 2025 12:32:05 GMT-0500 (Eastern Standard Time),1025987.5,1900,I,m,998,5,3,2924.2000007629395,1023063.2999992371,9002,NTS,B,9
2,7,test,3,C,circle.png,1,z,Fri Jan 17 2025 12:32:05 GMT-0500 (Eastern Standard Time),1028754.1999988556,1700,I,z,1033,10,3,2755.699998855591,1025998.5,9002,NTS,B,10
3,8,test,3,C,triangle.png,1,z,Fri Jan 17 2025 12:32:05 GMT-0500 (Eastern Standard Time),1031171.0999984741,1200,I,z,1182,3,3,2408.099998474121,1028763.0,9002,NTS,B,11
9,8,test,3,C,triangle.png,0,z,Fri Jan 17 2025 12:32:05 GMT-0500 (Eastern Standard Time),1033754.3999996185,1400,I,m,1157,16,3,2574.3999996185303,1031180.0,9002,NTS,B,12
7,9,test,3,C,triangle.png,1,z,Fri Jan 17 2025 12:32:05 GMT-0500 (Eastern Standard Time),1036387.6999988556,1700,I,z,898,22,3,2624.2999992370605,1033763.3999996185,9002,NTS,B,13
6,10,test,3,C,circle.png,1,m,Fri Jan 17 2025 12:32:05 GMT-0500 (Eastern Standard Time),1039637.3999996185,1900,I,m,1329,21,3,3240.3999996185303,1036397.0,9002,NTS,B,14
3,11,test,3,C,triangle.png,1,z,Fri Jan 17 2025 12:32:05 GMT-0500 (Eastern Standard Time),1042237.5,1200,I,z,1370,19,3,2595.1000003814697,1039642.3999996185,9002,NTS,B,15
7,12,test,3,C,triangle.png,1,z,Fri Jan 17 2025 12:32:05 GMT-0500 (Eastern Standard Time),1044954.5,1700,I,z,990,6,3,2711.0,1042243.5,9002,NTS,B,16
8,12,test,3,C,triangle.png,0,m,Fri Jan 17 2025 12:32:05 GMT-0500 (Eastern Standard Time),1048054.5,1600,I,z,1479,7,3,3086.900001525879,1044967.5999984741,9002,NTS,B,17
9,12,test,3,C,circle.png,0,m,Fri Jan 17 2025 12:32:05 GMT-0500 (Eastern Standard Time),1051087.5,1500,I,None,1513,24,3,3024.6000003814697,1048062.8999996185,9002,NTS,B,18
4,13,test,3,C,circle.png,1,z,Fri Jan 17 2025 12:32:05 GMT-0500 (Eastern Standard Time),1053554.5999984741,1400,I,z,1033,20,3,2459.099998474121,1051095.5,9002,NTS,B,19
9,14,test,3,C,circle.png,1,m,Fri Jan 17 2025 12:32:05 GMT-0500 (Eastern Standard Time),1056554.5,1500,I,m,1474,8,3,2991.1000003814697,1053563.3999996185,9002,NTS,B,20
2,15,test,3,C,triangle.png,1,m,Fri Jan 17 2025 12:32:05 GMT-0500 (Eastern Standard Time),1059987.6999988556,2000,I,m,1398,18,3,3424.6000003814697,1056563.0999984741,9002,NTS,B,21
8,16,test,3,C,triangle.png,1,m,Fri Jan 17 2025 12:32:05 GMT-0500 (Eastern Standard Time),1062554.5,1600,I,m,923,23,3,2553.0,1060001.5,9002,NTS,B,22
4,17,test,3,C,circle.png,1,z,Fri Jan 17 2025 12:32:05 GMT-0500 (Eastern Standard Time),1065271.0,1400,I,z,1295,4,3,2706.800001144409,1062564.1999988556,9002,NTS,B,23
8,18,test,3,C,circle.png,1,m,Fri Jan 17 2025 12:32:05 GMT-0500 (Eastern Standard Time),1067704.5999984741,1200,I,m,1209,15,3,2424.699998855591,1065279.8999996185,9002,NTS,B,24
1,1,test,4,C,circle.png,1,z,Fri Jan 17 2025 12:32:05 GMT-0500 (Eastern Standard Time),1071704.1999988556,1000,I,z,1243,1,3,2258.699998855591,1069445.5,9002,NTS,B,1
2,2,test,4,C,triangle.png,1,m,Fri Jan 17 2025 12:32:05 GMT-0500 (Eastern Standard Time),1075187.8999996185,2000,I,m,1449,2,3,3476.7000007629395,1071711.1999988556,9002,NTS,B,2
6,3,test,4,C,triangle.png,1,m,Fri Jan 17 2025 12:32:05 GMT-0500 (Eastern Standard Time),1077071.0999984741,1000,I,m,854,13,3,1875.1999988555908,1075195.8999996185,9002,NTS,B,3
9,3,test,4,C,circle.png,0,m,Fri Jan 17 2025 12:32:05 GMT-0500 (Eastern Standard Time),1080104.3999996185,1500,I,None,1513,24,3,3024.6000003814697,1077079.799999237,9002,NTS,B,4
3,4,test,4,C,triangle.png,1,z,Fri Jan 17 2025 12:32:05 GMT-0500 (Eastern Standard Time),1082387.8999996185,1200,I,z,1048,19,3,2274.800001144409,1080113.0999984741,9002,NTS,B,5
9,5,test,4,C,circle.png,1,m,Fri Jan 17 2025 12:32:05 GMT-0500 (Eastern Standard Time),1085154.0999984741,1500,I,m,1232,8,3,2757.2999992370605,1082396.799999237,9002,NTS,B,6
1,6,test,4,C,triangle.png,1,z,Fri Jan 17 2025 12:32:05 GMT-0500 (Eastern Standard Time),1088271.0999984741,1900,I,z,1186,9,3,3106.5,1085164.5999984741,9002,NTS,B,7
8,7,test,4,C,circle.png,1,m,Fri Jan 17 2025 12:32:05 GMT-0500 (Eastern Standard Time),1090654.299999237,1200,I,m,1153,15,3,2374.7000007629395,1088279.5999984741,9002,NTS,B,8
8,8,test,4,C,triangle.png,1,m,Fri Jan 17 2025 12:32:05 GMT-0500 (Eastern Standard Time),1093704.3999996185,1600,I,m,1427,23,3,3041.5,1090662.8999996185,9002,NTS,B,9
4,8,test,4,C,circle.png,0,z,Fri Jan 17 2025 12:32:05 GMT-0500 (Eastern Standard Time),1096637.799999237,1400,I,None,1514,4,3,2924.6000003814697,1093713.1999988556,9002,NTS,B,10
7,9,test,4,C,triangle.png,1,z,Fri Jan 17 2025 12:32:05 GMT-0500 (Eastern Standard Time),1099604.0999984741,1700,I,z,1246,6,3,2957.699998855591,1096646.3999996185,9002,NTS,B,11
3,10,test,4,C,triangle.png,1,z,Fri Jan 17 2025 12:32:05 GMT-0500 (Eastern Standard Time),1101804.5999984741,1200,I,z,972,3,3,2193.0,1099611.5999984741,9002,NTS,B,12
6,11,test,4,C,circle.png,1,m,Fri Jan 17 2025 12:32:05 GMT-0500 (Eastern Standard Time),1105204.6999988556,1900,I,m,1466,5,3,3392.0,1101812.6999988556,9002,NTS,B,13
4,11,test,4,C,triangle.png,0,m,Fri Jan 17 2025 12:32:05 GMT-0500 (Eastern Standard Time),1108087.8999996185,1500,I,z,1362,12,3,2873.3999996185303,1105214.5,9002,NTS,B,14
8,12,test,4,C,triangle.png,1,m,Fri Jan 17 2025 12:32:05 GMT-0500 (Eastern Standard Time),1110954.1999988556,1600,I,m,1241,7,3,2856.699998855591,1108097.5,9002,NTS,B,15
6,13,test,4,C,circle.png,1,m,Fri Jan 17 2025 12:32:05 GMT-0500 (Eastern Standard Time),1114371.0,1900,I,m,1482,21,3,3410.2000007629395,1110960.799999237,9002,NTS,B,16
3,14,test,4,C,circle.png,1,z,Fri Jan 17 2025 12:32:05 GMT-0500 (Eastern Standard Time),1116971.299999237,1600,I,z,974,11,3,2592.3999996185303,1114378.8999996185,9002,NTS,B,17
2,15,test,4,C,circle.png,1,z,Fri Jan 17 2025 12:32:05 GMT-0500 (Eastern Standard Time),1119771.1999988556,1700,I,z,1075,10,3,2791.8999996185303,1116979.299999237,9002,NTS,B,18
9,15,test,4,C,triangle.png,0,z,Fri Jan 17 2025 12:32:05 GMT-0500 (Eastern Standard Time),1122704.3999996185,1400,I,None,1513,16,3,2924.8999996185303,1119779.5,9002,NTS,B,19
2,16,test,4,C,triangle.png,1,m,Fri Jan 17 2025 12:32:05 GMT-0500 (Eastern Standard Time),1125871.0999984741,2000,I,m,1135,18,3,3157.8999996185303,1122713.1999988556,9002,NTS,B,20
1,17,test,4,C,circle.png,1,z,Fri Jan 17 2025 12:32:05 GMT-0500 (Eastern Standard Time),1128088.0,1000,I,z,1194,17,3,2207.400001525879,1125880.5999984741,9002,NTS,B,21
4,18,test,4,C,circle.png,1,z,Fri Jan 17 2025 12:32:05 GMT-0500 (Eastern Standard Time),1130704.5999984741,1400,I,z,1184,20,3,2607.699998855591,1128096.8999996185,9002,NTS,B,22
7,18,test,4,C,triangle.png,0,z,Fri Jan 17 2025 12:32:05 GMT-0500 (Eastern Standard Time),1133937.799999237,1700,I,None,1514,22,3,3224.6000003814697,1130713.1999988556,9002,NTS,B,23
7,19,test,4,C,circle.png,1,m,Fri Jan 17 2025 12:32:05 GMT-0500 (Eastern Standard Time),1137221.0,2000,I,m,1264,14,3,3274.800001144409,1133946.1999988556,9002,NTS,B,24
